trialnr	nstim	fixonset	stimonset	maintenanceonset	probeonset	RT	response	stimx0	stimy0	stimori0	stimerror0	stimx1	stimy1	stimori1	stimerror1	stimx2	stimy2	stimori2	stimerror2	stimx3	stimy3	stimori3	stimerror3	E	X	T	NT0	NT1	NT2
0	4	4240.38373429	5459.16051435	10469.7746754	13492.3250943	17401.8294565	124	215	319	56	68	1152	888	158	-34	285	870	129	-5	554	520	79	45	-5	124	129	56	158	79
1	2	31010.6225914	32212.4159074	37222.3164221	40245.9316292	10086.7576996	134	170	234	175	-41	1272	574	125	9	nan	nan	nan	nan	nan	nan	nan	nan	-41	134	175	125	nan	nan
2	4	50415.1149348	51917.860659	56927.6893325	59950.4747013	8015.84170319	144	1399	278	164	-20	710	296	135	9	1169	289	50	-86	614	150	32	-68	-20	144	164	135	50	32
3	2	68033.0124674	69118.4015201	74128.1550537	77150.7846445	7431.91769645	120	784	899	111	9	1277	813	131	-11	nan	nan	nan	nan	nan	nan	nan	nan	-11	120	131	111	nan	nan
4	4	84632.4636891	85968.078345	90977.9249788	94000.5091191	6780.15073443	64	847	184	99	-35	670	388	124	-60	1386	484	170	74	508	368	41	23	-60	64	124	99	170	41
5	4	100847.392203	102283.849087	107294.010209	110315.92652	10187.1622825	114	1256	888	152	-38	1289	196	117	-3	1468	145	19	-85	811	777	130	-16	-16	114	130	152	117	19
6	4	120636.381597	122139.119257	127148.991548	130171.600613	11806.7799704	68	889	847	170	78	653	539	61	7	1204	288	151	-83	851	657	34	34	7	68	61	170	151	34
7	2	142044.97145	143081.233263	148106.883847	151130.032087	6846.49638852	148	852	861	92	56	861	610	155	-7	nan	nan	nan	nan	nan	nan	nan	nan	-7	148	155	92	nan	nan
8	4	158059.850629	159562.776323	164572.957604	167595.153582	7331.47719301	25	316	442	6	19	1057	820	20	5	1366	244	39	-14	1032	517	171	34	-14	25	39	6	20	171
9	2	174993.175825	176329.918314	181338.782263	184361.787188	7865.17911534	48	755	451	123	-75	491	562	68	-20	nan	nan	nan	nan	nan	nan	nan	nan	-20	48	68	123	nan	nan
10	4	192310.438004	193328.995009	198338.88636	201362.195509	6111.56488317	87	656	676	166	-79	587	945	86	1	522	773	70	17	671	370	116	-29	1	87	86	166	70	116
11	2	207540.480647	208809.483909	213819.294989	216842.265825	5243.72508011	87	342	194	176	-89	519	282	77	10	nan	nan	nan	nan	nan	nan	nan	nan	10	87	77	176	nan	nan
12	2	222152.446887	223571.791652	228581.614094	231604.738143	7681.85740121	120	670	178	4	-64	384	757	128	-8	nan	nan	nan	nan	nan	nan	nan	nan	-8	120	128	4	nan	nan
13	2	239353.599497	240471.831311	245481.519968	248504.148459	5879.01733057	60	823	233	28	32	173	263	41	19	nan	nan	nan	nan	nan	nan	nan	nan	19	60	41	28	nan	nan
14	4	254465.91688	255818.534793	260828.330111	263850.964101	9970.15147483	53	1479	362	140	-87	1353	866	152	81	1231	484	46	7	391	300	68	-15	-15	53	68	140	152	46
15	2	273887.380225	275390.28356	280400.123963	283422.758318	8282.99249114	128	1146	409	118	10	312	207	138	-10	nan	nan	nan	nan	nan	nan	nan	nan	-10	128	138	118	nan	nan
16	4	291789.390384	293191.960977	298201.747865	301224.545696	7765.71836369	139	196	256	147	-8	254	764	95	44	568	418	162	-23	1466	530	41	-82	-8	139	147	95	162	41
17	2	309023.437804	310242.121483	315251.963352	318274.751653	6112.12128543	69	1132	876	59	10	1028	212	74	-5	nan	nan	nan	nan	nan	nan	nan	nan	10	69	59	74	nan	nan
18	4	324470.168702	325689.897744	330698.954125	333721.625501	9301.99153887	135	478	798	141	-6	1111	268	170	-35	1284	258	110	25	661	629	35	-80	-6	135	141	170	110	35
19	4	343107.08031	344375.903237	349385.663369	352408.350872	8484.44456174	104	547	319	120	-16	1308	861	101	3	990	922	161	-57	497	146	141	-37	-57	104	161	120	101	141
20	2	360992.611359	362427.990992	367437.807203	370461.445502	6529.03298168	48	1391	214	164	64	474	936	26	22	nan	nan	nan	nan	nan	nan	nan	nan	22	48	26	164	nan	nan
21	2	377056.816074	378459.526684	383469.324569	386493.003553	7097.05553979	12	546	874	92	-80	620	139	1	11	nan	nan	nan	nan	nan	nan	nan	nan	11	12	1	92	nan	nan
22	4	393672.785259	394991.958924	400001.781	403025.083185	7831.81330688	123	1312	435	140	-17	1350	643	96	27	1327	881	122	1	561	854	152	-29	-29	123	152	140	96	122
23	4	410923.337446	412008.848922	417018.73111	420041.675555	5911.57236052	113	170	803	97	16	323	871	31	82	388	697	128	-15	1050	656	110	3	16	113	97	31	128	110
24	2	426019.651116	427138.463157	432148.321153	435170.934983	9151.51918342	36	1158	517	49	-13	831	671	153	63	nan	nan	nan	nan	nan	nan	nan	nan	-13	36	49	153	nan	nan
25	2	444389.220971	445758.51519	450768.604471	453790.912243	10754.4627639	101	792	249	106	-5	336	916	74	27	nan	nan	nan	nan	nan	nan	nan	nan	-5	101	106	74	nan	nan
26	2	464612.272665	465647.653691	470657.829108	473680.0786	12340.9008438	110	305	469	110	0	1102	505	62	48	nan	nan	nan	nan	nan	nan	nan	nan	0	110	110	62	nan	nan
27	2	486070.971343	487473.88025	492483.501464	495506.244314	10554.5900987	135	1000	575	133	2	781	386	44	-89	nan	nan	nan	nan	nan	nan	nan	nan	2	135	133	44	nan	nan
28	2	506127.059476	507630.172104	512639.945797	515662.418143	9453.24021843	148	241	756	163	-15	1234	447	59	89	nan	nan	nan	nan	nan	nan	nan	nan	-15	148	163	59	nan	nan
29	4	525198.103761	526367.272405	531377.302673	534399.386858	10921.4571141	25	1414	189	10	15	390	121	47	-22	442	564	37	-12	688	322	176	29	-22	25	47	10	37	176
30	4	545370.815712	546690.628617	551699.90492	554723.064156	7197.00085256	34	359	848	72	-38	784	813	1	33	1137	389	38	-4	663	486	88	-54	-4	34	38	72	1	88
31	4	562003.516184	563223.534056	568232.509066	571255.767634	9301.27825904	70	268	868	96	-26	492	420	61	9	681	209	50	20	886	156	172	78	20	70	50	96	61	172
32	2	580606.884946	582026.183894	587036.148186	590058.740024	7448.23919579	22	551	725	19	3	1461	156	117	85	nan	nan	nan	nan	nan	nan	nan	nan	3	22	19	117	nan	nan
33	4	597573.546995	598809.155493	603818.940549	606841.970031	10988.4592349	63	743	261	38	25	1083	734	97	-34	609	530	62	1	383	346	87	-24	1	63	62	38	97	87
34	2	617897.350748	619015.650738	624025.95261	627047.944061	11188.9260557	60	1480	627	45	15	282	308	140	-80	nan	nan	nan	nan	nan	nan	nan	nan	15	60	45	140	nan	nan
35	2	638304.085195	639789.789909	644799.469035	647822.273464	8099.31047172	66	1129	411	75	-9	554	469	51	15	nan	nan	nan	nan	nan	nan	nan	nan	-9	66	75	51	nan	nan
36	2	656005.756454	657407.636859	662417.412385	665440.951719	8298.90786814	73	754	788	71	2	308	663	7	66	nan	nan	nan	nan	nan	nan	nan	nan	2	73	71	7	nan	nan
37	4	673806.536224	675092.489596	680102.233233	683124.822138	9969.6254951	80	947	870	93	-13	181	257	107	-27	550	231	179	81	286	703	53	27	-13	80	93	107	179	53
38	2	693161.314869	694380.244494	699391.487632	702413.059765	9668.92416435	131	468	386	161	-30	1210	707	127	4	nan	nan	nan	nan	nan	nan	nan	nan	4	131	127	161	nan	nan
39	4	712165.269063	713350.888228	718360.797173	721384.000393	6311.79895332	81	798	132	69	12	1498	775	3	78	371	499	156	-75	1007	107	86	-5	-5	81	86	69	3	156
40	2	727762.572748	729131.873932	734142.6567	737164.492373	14328.124118	104	384	602	114	-10	831	882	158	-54	nan	nan	nan	nan	nan	nan	nan	nan	-10	104	114	158	nan	nan
41	2	751559.302657	752678.23089	757687.974161	760710.575895	7598.37323815	70	1496	769	121	-51	1058	798	66	4	nan	nan	nan	nan	nan	nan	nan	nan	4	70	66	121	nan	nan
42	2	768375.659124	769612.361733	774621.228615	777643.851975	11055.2212744	84	916	673	75	9	240	171	90	-6	nan	nan	nan	nan	nan	nan	nan	nan	9	84	75	90	nan	nan
43	2	788749.047189	789768.003718	794778.129286	797800.247192	7815.45148854	117	497	200	129	-12	208	401	65	52	nan	nan	nan	nan	nan	nan	nan	nan	-12	117	129	65	nan	nan
44	2	805682.291747	806784.571163	811794.749146	814816.920566	9535.93522862	17	199	607	105	-88	421	711	9	8	nan	nan	nan	nan	nan	nan	nan	nan	8	17	9	105	nan	nan
45	2	824402.484457	825571.338613	830581.184147	833603.931396	7197.51986811	148	1362	568	139	9	1243	473	43	-75	nan	nan	nan	nan	nan	nan	nan	nan	9	148	139	43	nan	nan
46	4	840901.531829	842170.621961	847180.485455	850203.091588	6880.55055233	152	1050	112	124	28	464	577	15	-43	877	424	166	-14	434	254	97	55	-14	152	166	124	15	97
47	2	857150.245836	858586.285601	863596.456253	866618.653697	7565.09026692	162	1439	318	154	8	1334	555	87	75	nan	nan	nan	nan	nan	nan	nan	nan	8	162	154	87	nan	nan
48	2	874250.387612	875503.001933	880513.020106	883535.407416	5777.89360328	115	1203	489	99	16	860	372	57	58	nan	nan	nan	nan	nan	nan	nan	nan	16	115	99	57	nan	nan
49	2	889380.421165	890766.242144	895776.122499	898799.23152	5460.25939048	78	188	818	55	23	265	483	72	6	nan	nan	nan	nan	nan	nan	nan	nan	6	78	72	55	nan	nan
50	4	904342.841654	905378.977378	910388.042923	913410.603238	7782.51269499	55	335	722	104	-49	1264	701	77	-22	700	172	38	17	259	263	129	-74	17	55	38	104	77	129
51	2	921259.384615	922512.535545	927522.605399	930544.395988	11406.0567208	36	704	427	113	-77	565	579	36	0	nan	nan	nan	nan	nan	nan	nan	nan	0	36	36	113	nan	nan
52	4	942033.722448	943420.151511	948429.379798	951452.202187	10453.9395699	44	519	356	56	-12	368	362	77	-33	535	113	145	79	235	191	19	25	-12	44	56	77	145	19
53	4	961989.56984	963509.022293	968518.834839	971541.482757	5427.6042961	30	1089	855	17	13	644	308	65	-35	1128	552	47	-17	1206	719	77	-47	13	30	17	65	47	77
54	4	977052.388681	978538.583821	983548.482136	986571.155711	5310.51351017	97	274	886	150	-53	202	626	94	3	633	576	51	46	1187	628	29	68	3	97	94	150	51	29
55	4	991965.193703	993451.146929	998461.047077	1001483.80056	7381.74509446	116	1376	615	50	66	1280	918	141	-25	539	747	117	-1	575	301	173	-57	-1	116	117	50	141	173
56	4	1008915.0255	1010351.4439	1015361.56507	1018383.56165	5878.6933124	144	1329	284	152	-8	251	310	139	5	690	292	176	-32	333	613	21	-57	-8	144	152	139	176	21
57	2	1024312.07899	1025631.90912	1030640.91932	1033663.68306	6279.08081468	85	1195	194	59	26	1187	944	86	-1	nan	nan	nan	nan	nan	nan	nan	nan	-1	85	86	59	nan	nan
58	2	1040009.57613	1041144.91017	1046154.73847	1049177.38272	10889.0395353	99	651	298	101	-2	854	913	77	22	nan	nan	nan	nan	nan	nan	nan	nan	-2	99	101	77	nan	nan
59	4	1060115.70015	1061150.86015	1066160.69359	1069183.358	7097.5067461	33	1204	784	47	-14	1465	191	164	49	226	455	60	-27	1159	474	10	23	49	33	164	47	60	10
60	4	1076348.12748	1077482.96009	1082492.78803	1085515.41322	6947.19749934	73	712	716	40	33	238	311	89	-16	1419	292	18	55	576	886	60	13	33	73	40	89	18	60
61	2	1092595.97462	1094082.47692	1099092.07981	1102115.50258	8866.95315152	161	1247	782	165	-4	1079	666	117	44	nan	nan	nan	nan	nan	nan	nan	nan	-4	161	165	117	nan	nan
62	2	1111049.30428	1112551.86307	1117561.69724	1120584.43899	11372.4178427	97	438	803	49	48	717	778	91	6	nan	nan	nan	nan	nan	nan	nan	nan	6	97	91	49	nan	nan
63	4	1132006.81684	1133392.7936	1138402.69375	1141425.39738	5143.48690475	105	1244	899	142	-37	1382	329	59	46	531	605	23	82	1082	203	48	57	46	105	59	142	23	48
64	4	1146702.60776	1148055.07063	1153064.90407	1156087.56041	5545.04732351	47	338	620	142	85	1488	556	46	1	461	243	81	-34	1007	279	158	69	1	47	46	142	81	158
65	2	1161698.57073	1162833.97477	1167843.98928	1170866.58515	6245.84439357	64	339	603	100	-36	1356	872	127	-63	nan	nan	nan	nan	nan	nan	nan	nan	-63	64	127	100	nan	nan
66	4	1177179.77877	1178564.89234	1183574.71258	1186598.32559	8132.13710514	61	836	633	65	-4	622	901	103	-42	1327	106	122	-61	1193	519	39	22	-4	61	65	103	122	39
67	4	1194780.23614	1196032.53377	1201042.39103	1204065.0078	5862.15445697	146	1276	145	144	2	565	343	116	30	1149	807	158	-12	1049	415	4	-38	-12	146	158	144	116	4
68	4	1210010.24323	1211028.69907	1216038.46323	1219061.15733	5394.79635604	101	1041	552	150	-49	1362	930	4	-83	297	679	103	-2	568	924	132	-31	-49	101	150	4	103	132
69	2	1224538.56989	1225824.46169	1230834.40655	1233856.99399	5026.64646318	67	428	726	157	90	424	251	55	12	nan	nan	nan	nan	nan	nan	nan	nan	12	67	55	157	nan	nan
70	4	1238951.16379	1240036.27867	1245046.33313	1248068.26007	6413.7855073	101	940	278	87	14	382	844	5	-84	354	605	103	-2	1191	176	46	55	-2	101	103	87	5	46
71	4	1254597.62257	1255933.56491	1260943.38552	1263967.13451	4741.77510646	105	362	841	140	-35	720	847	111	-6	1046	751	173	-68	846	378	24	81	-35	105	140	111	173	24
72	4	1268792.23067	1270095.68139	1275104.64688	1278127.34647	4909.9368751	66	902	899	26	40	1245	547	140	-74	650	479	156	90	634	778	4	62	-74	66	140	26	156	4
73	4	1283120.52743	1284573.31424	1289582.96405	1292605.62406	10638.424304	53	401	758	135	-82	725	188	172	61	890	383	85	-32	1078	524	162	71	71	53	162	135	172	85
74	4	1303310.46439	1304780.4227	1309789.30608	1312811.97599	8266.70471315	41	962	457	19	22	657	699	149	72	674	880	88	-47	898	230	41	0	72	41	149	19	88	41
75	2	1321161.89106	1322430.8705	1327441.1042	1330463.32767	6529.85548936	84	607	820	18	66	292	856	88	-4	nan	nan	nan	nan	nan	nan	nan	nan	-4	84	88	18	nan	nan
76	4	1337059.65673	1338562.59232	1343572.8843	1346595.00917	6096.62852489	52	1510	513	32	20	500	444	68	-16	1467	264	163	69	346	328	132	-80	20	52	32	68	163	132
77	2	1352740.43981	1354143.09508	1359153.1609	1362175.75164	5928.45392747	104	986	623	93	11	425	709	106	-2	nan	nan	nan	nan	nan	nan	nan	nan	-2	104	106	93	nan	nan
78	2	1368170.95001	1369456.57277	1374466.39668	1377489.17215	4842.80536697	47	555	629	34	13	1503	553	69	-22	nan	nan	nan	nan	nan	nan	nan	nan	13	47	34	69	nan	nan
79	4	1382415.40193	1383734.61885	1388744.46145	1391767.09764	6212.58048223	33	1040	692	12	21	973	418	2	31	1135	833	163	50	257	482	95	-62	50	33	163	12	2	95
