trialnr	nstim	rewtype	rewamount	reward	total	fixonset	stimonset	maintenanceonset	probeonset	t1	rewardonset	RT	nfixself	nfixother	probedstim	response	self_fixated0	other_fixated0	rewarded0	ori0	XYloc0	error0	self_fixated1	other_fixated1	rewarded1	ori1	XYloc1	error1	self_fixated2	other_fixated2	rewarded2	ori2	XYloc2	error2	self_fixated3	other_fixated3	rewarded3	ori3	XYloc3	error3	self_fixated4	other_fixated4	rewarded4	ori4	XYloc4	error4	self_fixated5	other_fixated5	rewarded5	ori5	XYloc5	error5	self_fixated6	other_fixated6	rewarded6	ori6	XYloc6	error6	self_fixated7	other_fixated7	rewarded7	ori7	XYloc7	error7	E	X	T	NT0	NT1	NT2	NT3	NT4	NT5	NT6
1	8	collaborate	contingent	3.17	40.6690014936	18694.9280892	14219.179237	19946.8833776	23069.9380773	28615.1111228	None	5545.1730455	4	4	3	174	0	1	1	53	[257, 599]	-59	0	1	1	75	[522, 760]	-81	0	1	1	28	[721, 645]	-34	1	0	1	127	[1375, 595]	47	1	0	1	15	[1500, 705]	-21	1	0	1	4	[923, 261]	-10	0	1	1	42	[618, 910]	-48	1	0	1	113	[641, 194]	61	47	174	127	53	75	28	15	4	42	113
2	8	collaborate	contingent	2.55	52.8760144166	43311.0369241	35227.9779433	44579.052738	47701.6276415	51275.4927899	None	3573.86514833	5	3	4	76	1	0	1	3	[1082, 883]	73	1	0	1	84	[1155, 528]	-8	0	1	1	143	[428, 786]	-67	0	1	1	70	[280, 699]	6	1	0	1	27	[1137, 120]	49	0	1	1	48	[334, 945]	28	1	0	1	106	[1368, 659]	-30	1	0	1	129	[1469, 106]	-53	49	76	27	3	84	143	70	48	106	129
3	8	collaborate	contingent	12.89	89.8442820724	65203.9415858	57170.1934799	66471.9346744	69595.6498727	74070.5446951	None	4474.89482238	5	3	0	75	1	0	1	40	[1175, 844]	35	1	0	1	60	[1215, 267]	15	0	1	1	28	[180, 854]	47	1	0	1	145	[1446, 396]	-70	0	1	1	157	[631, 261]	-82	0	1	1	179	[318, 208]	76	1	0	1	116	[1497, 705]	-41	1	0	1	105	[1212, 613]	-30	35	75	40	60	28	145	157	179	116	105
4	8	collaborate	contingent	54.01	164.753920186	88899.7973787	79731.4966927	90168.0180864	93291.3352261	98468.3543469	None	5177.01912074	5	3	5	50	1	0	1	54	[192, 435]	-4	1	0	1	125	[409, 475]	-75	1	0	1	151	[1367, 514]	79	0	1	1	84	[976, 837]	-34	0	1	1	172	[313, 897]	58	1	0	1	69	[1035, 444]	-19	1	0	1	4	[637, 273]	46	0	1	1	110	[225, 774]	-60	-19	50	69	54	125	151	84	172	4	110
5	8	collaborate	contingent	47.16	218.857187842	113380.998093	104246.023263	114649.47611	117773.53292	120595.137455	None	2821.60453508	4	4	6	92	0	1	1	5	[1323, 856]	87	1	0	1	45	[1426, 322]	47	0	1	1	141	[673, 570]	-49	1	0	1	127	[947, 310]	-35	0	1	1	21	[294, 451]	71	1	0	1	73	[1137, 210]	19	1	0	1	113	[774, 253]	-21	0	1	1	61	[590, 397]	31	-21	92	113	5	45	141	127	21	73	61
6	8	collaborate	contingent	100.0	290.783129767	132618.771355	127374.716392	133888.187338	137010.369315	142070.243036	None	5059.87372088	3	5	2	73	0	1	1	62	[1031, 748]	11	0	1	1	96	[183, 368]	-23	1	0	1	73	[430, 180]	0	1	0	1	142	[978, 135]	-69	0	1	1	17	[1457, 794]	56	0	1	1	85	[545, 680]	-12	1	0	1	2	[1279, 402]	71	0	1	1	122	[307, 570]	-49	0	73	73	62	96	142	17	85	2	122
7	8	collaborate	contingent	74.9	367.317131261	171679.612732	147180.294857	172947.450409	176070.787709	180512.517218	None	4441.72950933	4	4	7	72	0	1	1	167	[1404, 831]	85	0	1	1	28	[1351, 378]	44	1	0	1	108	[635, 367]	-36	0	1	1	72	[1279, 915]	0	1	0	1	142	[982, 369]	-70	0	1	1	58	[651, 803]	14	1	0	1	152	[1139, 452]	-80	1	0	1	85	[202, 212]	-13	-13	72	85	167	28	108	72	142	58	152
8	8	collaborate	contingent	71.53	452.996565163	192068.990581	185456.03066	193337.342508	196460.852813	199850.676003	None	3389.82319017	4	4	6	120	0	1	1	149	[1400, 920]	-29	0	1	1	91	[751, 919]	29	1	0	1	134	[610, 440]	-14	0	1	1	19	[530, 898]	-79	0	1	1	76	[938, 869]	44	1	0	1	178	[1408, 150]	-58	1	0	1	106	[846, 739]	14	1	0	1	30	[650, 139]	90	14	120	106	149	91	134	19	76	178	30
9	8	collaborate	contingent	89.62	545.711203277	215431.617503	205211.74148	216700.379585	219823.104402	223397.381171	None	3574.2767687	4	4	3	137	1	0	1	152	[425, 319]	-15	1	0	1	12	[238, 478]	-55	1	0	1	115	[227, 174]	22	1	0	1	129	[1020, 159]	8	0	1	1	39	[1290, 674]	-82	0	1	1	176	[813, 895]	-39	0	1	1	141	[1140, 941]	-4	0	1	1	28	[907, 722]	-71	8	137	129	152	12	115	39	176	141	28
10	8	collaborate	contingent	98.47	641.957207407	234485.585223	229659.717503	235754.750495	238877.242561	241600.142876	None	2722.90031456	4	4	5	55	1	0	1	150	[670, 325]	85	0	1	1	63	[1185, 915]	-8	1	0	1	16	[286, 255]	39	0	1	1	122	[1199, 502]	-67	1	0	1	134	[557, 509]	-79	1	0	1	52	[280, 536]	3	0	1	1	170	[1348, 725]	65	0	1	1	110	[1386, 900]	-55	3	55	52	150	63	16	122	134	170	110
11	8	collaborate	contingent	8.13	688.158087133	257597.556595	248061.725463	258869.545297	262005.962081	264260.746664	None	2254.78458289	4	4	5	89	0	1	1	122	[1073, 743]	-33	0	1	1	60	[1472, 926]	29	0	1	1	137	[1285, 934]	-48	1	0	1	152	[189, 363]	-63	1	0	1	89	[253, 787]	0	1	0	1	50	[269, 129]	39	1	0	1	170	[1388, 236]	-81	0	1	1	16	[1346, 697]	73	39	89	50	122	60	137	152	89	170	16
12	8	collaborate	contingent	95.81	785.298295599	290495.677803	271841.87803	291764.090576	294887.396353	300247.799499	None	5360.40314606	5	3	2	40	0	1	1	7	[1478, 866]	33	1	0	1	118	[485, 182]	-78	1	0	1	35	[1407, 522]	5	1	0	1	47	[723, 784]	-7	1	0	1	104	[1441, 170]	-64	1	0	1	140	[609, 669]	80	0	1	1	152	[1336, 915]	68	0	1	1	177	[1056, 680]	43	5	40	35	7	118	47	104	140	152	177
13	8	collaborate	contingent	1.36	807.904237524	317883.902161	304907.509305	319151.339581	322274.874443	326866.856752	None	4591.98230949	5	3	1	16	0	1	1	163	[659, 610]	33	1	0	1	139	[1106, 350]	57	0	1	1	68	[1296, 502]	-52	0	1	1	106	[1038, 665]	90	1	0	1	87	[245, 133]	-71	1	0	1	45	[1159, 172]	-29	1	0	1	119	[519, 377]	77	1	0	1	17	[489, 537]	-1	57	16	139	163	68	106	87	45	119	17
14	8	collaborate	contingent	95.81	871.679313437	342197.31754	334215.208182	343465.695858	346589.71235	350596.654916	None	4006.94256594	4	4	5	21	1	0	1	39	[1483, 510]	-18	0	1	1	82	[674, 913]	-61	1	0	1	149	[1421, 177]	52	1	0	1	49	[1067, 459]	-28	0	1	1	160	[555, 760]	41	1	0	1	16	[371, 316]	5	0	1	1	120	[312, 697]	81	0	1	1	170	[685, 599]	31	5	21	16	39	82	149	49	160	120	170
15	8	collaborate	contingent	17.84	882.182788321	364126.110147	356425.399946	365391.958265	368515.273572	372356.994358	None	3841.72078577	4	4	4	53	1	0	1	161	[1413, 297]	72	0	1	1	15	[451, 690]	38	0	1	1	99	[218, 289]	-46	1	0	1	39	[1286, 394]	14	1	0	1	85	[708, 115]	-32	0	1	1	138	[1165, 683]	-85	0	1	1	27	[561, 797]	26	1	0	1	151	[910, 319]	82	-32	53	85	161	15	99	39	138	27	151
16	8	collaborate	contingent	1.0	929.693792451	391794.639918	379520.01472	393063.799326	396202.969165	403300.698032	None	7097.72886716	5	3	5	178	1	0	1	36	[179, 331]	-38	0	1	1	24	[1024, 866]	-26	1	0	1	62	[231, 166]	-64	0	1	1	131	[1021, 649]	47	0	1	1	177	[1344, 827]	1	1	0	1	82	[207, 490]	-84	1	0	1	106	[363, 317]	72	1	0	1	14	[208, 828]	-16	-84	178	82	36	24	62	131	177	106	14
17	8	collaborate	contingent	61.05	1003.74606936	431956.907049	410046.705168	433225.341447	436349.096964	439838.505895	None	3489.40893073	5	3	4	64	0	1	1	92	[1170, 551]	-28	1	0	1	15	[615, 623]	49	0	1	1	128	[1505, 883]	-64	0	1	1	104	[1430, 487]	-40	1	0	1	81	[722, 340]	-17	1	0	1	3	[338, 923]	61	1	0	1	41	[223, 725]	23	1	0	1	146	[674, 945]	-82	-17	64	81	92	15	128	104	3	41	146
18	8	collaborate	contingent	1.64	1005.11763966	450393.190194	445232.501002	451661.420798	454785.663808	458709.380253	None	3923.71644451	4	4	1	66	0	1	1	118	[1071, 388]	-52	1	0	1	12	[308, 306]	54	0	1	1	27	[880, 707]	39	0	1	1	83	[1422, 848]	-17	0	1	1	140	[1184, 833]	-74	1	0	1	102	[512, 849]	-36	1	0	1	66	[362, 476]	0	1	0	1	173	[462, 669]	73	54	66	12	118	27	83	140	102	66	173
19	8	collaborate	contingent	9.14	1059.34626171	471735.254424	463551.717553	473003.328884	476126.419137	479215.818098	None	3089.39896094	4	4	7	24	0	1	1	28	[668, 148]	-4	1	0	1	38	[635, 512]	-14	0	1	1	63	[1338, 341]	-39	0	1	1	86	[1267, 838]	-62	1	0	1	140	[307, 518]	64	0	1	1	150	[973, 207]	54	1	0	1	10	[763, 843]	14	1	0	1	166	[501, 870]	38	38	24	166	28	38	63	86	140	150	10
20	8	collaborate	contingent	99.32	1139.52952936	494295.896405	483891.734311	495564.403744	498704.155277	503247.393376	None	4543.23809985	5	3	6	176	1	0	1	28	[462, 928]	-32	0	1	1	108	[1504, 646]	68	0	1	1	66	[1284, 473]	-70	1	0	1	78	[232, 608]	-82	0	1	1	122	[1155, 368]	54	1	0	1	55	[1126, 747]	-59	1	0	1	178	[1263, 931]	-2	1	0	1	92	[603, 545]	84	-2	176	178	28	108	66	78	122	55	92
21	8	collaborate	contingent	87.05	1230.06553349	514754.149375	509024.4795	516021.423686	519161.063791	524506.252378	None	5345.18858664	4	4	6	160	0	1	1	78	[1261, 339]	82	0	1	1	24	[1311, 662]	-44	1	0	1	105	[609, 370]	55	1	0	1	42	[404, 401]	-62	0	1	1	12	[1489, 856]	-32	0	1	1	152	[879, 791]	8	1	0	1	169	[244, 892]	-9	1	0	1	179	[661, 535]	-19	-9	160	169	78	24	105	42	12	152	179
22	8	collaborate	contingent	89.62	1324.87553349	534942.81519	529197.287851	536194.229471	539333.982836	542790.837103	None	3456.85426733	4	4	6	115	0	1	1	27	[1397, 406]	88	0	1	1	73	[1076, 383]	42	0	1	1	161	[1183, 118]	-46	0	1	1	9	[1311, 699]	-74	1	0	1	53	[394, 376]	62	1	0	1	84	[922, 200]	31	1	0	1	123	[691, 319]	-8	1	0	1	173	[485, 583]	-58	-8	115	123	27	73	161	9	53	84	173
23	8	collaborate	contingent	17.84	1357.37623628	556051.400499	547417.377197	557369.130011	560492.845209	565368.535856	None	4875.69064621	5	3	3	32	0	1	1	173	[1365, 230]	39	1	0	1	152	[362, 674]	60	1	0	1	11	[523, 581]	21	1	0	1	64	[732, 861]	-32	0	1	1	21	[1168, 523]	11	0	1	1	133	[1399, 818]	79	1	0	1	47	[316, 309]	-15	1	0	1	79	[642, 701]	-47	-32	32	64	173	152	11	21	133	47	79
24	8	collaborate	contingent	94.02	1429.66361645	576858.690688	570296.458305	578109.76299	581233.573121	588280.195452	None	7046.62233042	4	4	5	145	0	1	1	47	[1260, 920]	-82	0	1	1	29	[756, 877]	-64	1	0	1	155	[621, 776]	-10	0	1	1	126	[1081, 857]	19	1	0	1	61	[806, 277]	84	1	0	1	139	[331, 267]	6	0	1	1	110	[1350, 577]	35	1	0	1	168	[963, 320]	-23	6	145	139	47	29	155	126	61	110	168
25	8	collaborate	contingent	68.08	1470.90271297	598200.077926	593107.012135	599451.729722	602574.878621	605046.395444	None	2471.51682292	4	4	0	14	1	0	1	179	[377, 842]	15	0	1	1	29	[1043, 238]	-15	0	1	1	121	[1061, 451]	73	1	0	1	104	[484, 487]	90	1	0	1	159	[663, 421]	35	0	1	1	61	[1307, 313]	-47	1	0	1	76	[351, 564]	-62	0	1	1	19	[600, 131]	-5	15	14	179	29	121	104	159	61	76	19
