trialnr	nstim	rewtype	rewamount	reward	total	fixonset	stimonset	maintenanceonset	probeonset	t1	rewardonset	RT	nfixself	nfixother	probedstim	response	self_fixated0	other_fixated0	rewarded0	ori0	XYloc0	error0	self_fixated1	other_fixated1	rewarded1	ori1	XYloc1	error1	self_fixated2	other_fixated2	rewarded2	ori2	XYloc2	error2	self_fixated3	other_fixated3	rewarded3	ori3	XYloc3	error3	self_fixated4	other_fixated4	rewarded4	ori4	XYloc4	error4	self_fixated5	other_fixated5	rewarded5	ori5	XYloc5	error5	self_fixated6	other_fixated6	rewarded6	ori6	XYloc6	error6	self_fixated7	other_fixated7	rewarded7	ori7	XYloc7	error7	E	X	T	NT0	NT1	NT2	NT3	NT4	NT5	NT6
1	8	collaborate	contingent	16.04	8.58402085678	29040.8454328	14159.8105279	30325.528588	33448.1917094	40495.3372392	None	7047.14552975	4	4	2	116	0	1	1	153	[182, 433]	-37	0	1	1	9	[543, 304]	-73	1	0	1	83	[1096, 583]	33	1	0	1	31	[1202, 752]	85	0	1	1	50	[394, 611]	66	1	0	1	95	[1135, 381]	21	1	0	1	132	[763, 899]	-16	0	1	1	60	[244, 241]	56	33	116	83	153	9	31	50	95	132	60
2	8	collaborate	contingent	95.81	92.2533632727	54407.7791609	47978.082715	55658.437834	58782.7038368	63842.6478587	None	5059.94402195	4	4	2	12	1	0	1	76	[897, 860]	-64	0	1	1	127	[545, 586]	65	1	0	1	7	[1432, 770]	5	1	0	1	46	[1410, 364]	-34	0	1	1	108	[934, 167]	84	1	0	1	87	[1249, 402]	-75	0	1	1	158	[463, 128]	34	0	1	1	21	[587, 218]	-9	5	12	7	76	127	46	108	87	158	21
3	8	collaborate	contingent	1.05	93.5424199943	75650.2522531	69671.0244658	76917.1757913	80040.3062519	87054.1893372	None	7013.88308533	4	4	6	19	0	1	1	149	[684, 282]	50	1	0	1	106	[1019, 437]	-87	0	1	1	78	[546, 754]	-59	1	0	1	49	[1131, 265]	-30	1	0	1	7	[1389, 540]	12	0	1	1	63	[457, 341]	-44	1	0	1	133	[1266, 867]	66	0	1	1	30	[478, 141]	-11	66	19	133	149	106	78	49	7	63	30
4	8	collaborate	contingent	29.05	108.631440851	104990.566349	92715.7955467	106241.87893	109365.390959	114124.463935	None	4759.07297527	3	5	2	100	0	1	1	145	[455, 372]	-45	0	1	1	93	[395, 121]	7	1	0	1	73	[935, 920]	27	1	0	1	22	[1318, 496]	78	0	1	1	50	[210, 592]	50	1	0	1	169	[656, 118]	-69	0	1	1	159	[671, 286]	-59	0	1	1	11	[1159, 551]	89	27	100	73	145	93	22	50	169	159	11
5	8	collaborate	contingent	57.52	137.892209642	129739.394886	121407.081634	131091.091162	134197.476956	139357.976213	None	5160.49925739	4	4	3	7	0	1	1	1	[454, 342]	6	1	0	1	68	[997, 794]	-61	1	0	1	17	[756, 710]	-10	1	0	1	169	[247, 826]	18	0	1	1	105	[618, 313]	82	0	1	1	48	[475, 182]	-41	0	1	1	119	[179, 384]	68	1	0	1	78	[1220, 279]	-71	18	7	169	1	68	17	105	48	119	78
6	8	collaborate	contingent	54.01	202.347929395	151599.2049	144701.505968	152850.827942	155957.391508	160416.038783	None	4458.64727521	4	4	7	86	1	0	1	101	[335, 151]	-15	1	0	1	44	[174, 176]	42	0	1	1	160	[966, 319]	-74	0	1	1	2	[947, 754]	84	0	1	1	117	[1392, 359]	-31	0	1	1	20	[1186, 153]	66	1	0	1	88	[985, 945]	-2	1	0	1	67	[579, 720]	19	19	86	67	101	44	160	2	117	20	88
7	8	collaborate	contingent	29.05	261.684508666	172290.288291	165643.053033	173575.174876	176698.294707	180021.686731	None	3323.39202379	4	4	1	36	1	0	1	100	[550, 918]	-64	1	0	1	63	[1438, 117]	-27	0	1	1	167	[1447, 750]	49	0	1	1	110	[1408, 426]	-74	0	1	1	121	[1269, 777]	-85	1	0	1	88	[344, 636]	-52	1	0	1	11	[435, 126]	25	0	1	1	150	[1021, 735]	66	-27	36	63	100	167	110	121	88	11	150
8	8	collaborate	contingent	1.0	310.08914678	197357.883478	187204.52956	198625.463857	201731.671146	204370.666942	None	2638.99579651	4	4	0	55	1	0	1	140	[981, 344]	-85	0	1	1	179	[401, 770]	56	0	1	1	11	[818, 743]	44	0	1	1	49	[423, 481]	6	1	0	1	105	[879, 153]	-50	0	1	1	85	[225, 762]	-30	1	0	1	59	[1336, 678]	-4	1	0	1	37	[988, 930]	18	-85	55	140	179	11	49	105	85	59	37
9	8	collaborate	contingent	74.9	393.515732005	219367.875004	211918.85308	220634.994641	223741.429185	226196.35131	None	2454.92212482	4	4	1	84	0	1	1	51	[795, 764]	33	1	0	1	97	[184, 268]	-13	0	1	1	171	[832, 915]	-87	0	1	1	153	[508, 944]	-69	1	0	1	62	[503, 575]	22	1	0	1	116	[1048, 311]	-32	0	1	1	128	[221, 853]	-44	1	0	1	35	[780, 285]	49	-13	84	97	51	171	153	62	116	128	35
10	8	collaborate	contingent	1.0	438.827311276	239157.634744	233844.891086	240490.977607	243597.440741	246303.462121	None	2706.02137957	4	4	2	90	1	0	1	17	[1012, 283]	73	0	1	1	52	[1387, 632]	38	1	0	1	171	[283, 464]	-81	0	1	1	106	[986, 882]	-16	0	1	1	120	[1081, 578]	-30	1	0	1	7	[373, 906]	83	1	0	1	70	[421, 256]	20	0	1	1	158	[959, 694]	-68	-81	90	171	17	52	106	120	7	70	158
11	8	collaborate	contingent	1.03	466.349214432	258111.705762	252282.863282	259462.975385	262568.535363	264957.214835	None	2388.67947212	4	4	0	58	1	0	1	170	[287, 611]	68	0	1	1	113	[1361, 841]	-55	1	0	1	148	[420, 358]	90	0	1	1	81	[1214, 658]	-23	1	0	1	71	[248, 227]	-13	1	0	1	6	[187, 772]	52	0	1	1	101	[904, 200]	-43	0	1	1	136	[534, 644]	-78	68	58	170	113	148	81	71	6	101	136
12	8	collaborate	contingent	81.3	556.913648334	280822.629986	274157.763766	282089.977978	285213.300873	289188.892579	None	3975.59170622	4	4	5	88	0	1	1	34	[1165, 633]	54	1	0	1	1	[187, 421]	87	0	1	1	58	[727, 806]	30	1	0	1	77	[580, 705]	11	0	1	1	46	[879, 700]	42	1	0	1	99	[921, 280]	-11	1	0	1	122	[339, 707]	-34	0	1	1	145	[967, 848]	-57	-11	88	99	34	1	58	77	46	122	145
13	8	collaborate	contingent	99.83	651.640227604	300127.594923	294548.192736	301378.897241	304503.160312	309661.920335	None	5158.76002305	4	4	7	83	0	1	1	54	[664, 726]	29	1	0	1	104	[447, 400]	-21	0	1	1	37	[258, 767]	46	1	0	1	66	[761, 371]	17	0	1	1	153	[385, 661]	-70	1	0	1	1	[194, 143]	82	0	1	1	139	[188, 518]	-56	1	0	1	82	[525, 151]	1	1	83	82	54	104	37	66	153	1	139
14	8	collaborate	contingent	29.05	666.691628443	319265.361709	314772.236908	320549.413682	323655.986412	326529.754286	None	2873.76787434	4	4	0	23	1	0	1	176	[1087, 409]	27	0	1	1	63	[1231, 717]	-40	0	1	1	26	[477, 559]	-3	0	1	1	138	[1152, 898]	65	0	1	1	94	[308, 899]	-71	1	0	1	73	[1156, 252]	-50	1	0	1	161	[371, 237]	42	1	0	1	15	[1439, 155]	8	27	23	176	63	26	138	94	73	161	15
15	8	collaborate	contingent	1.03	692.484008613	339053.695241	331320.937303	340307.356613	343428.345744	347169.118822	None	3740.77307775	4	4	2	78	0	1	1	84	[1481, 690]	-6	0	1	1	160	[961, 897]	-82	1	0	1	9	[667, 870]	69	1	0	1	24	[253, 123]	54	0	1	1	122	[1024, 578]	-44	1	0	1	144	[497, 517]	-66	1	0	1	106	[623, 110]	-28	0	1	1	49	[1198, 690]	29	69	78	9	84	160	24	122	144	106	49
16	8	collaborate	contingent	50.55	761.286285521	360713.464716	355435.404947	361983.244337	365104.850723	367826.651301	None	2721.80057855	3	5	7	151	0	1	1	82	[1367, 269]	69	0	1	1	156	[1222, 550]	-5	0	1	1	143	[1075, 514]	8	1	0	1	72	[390, 888]	79	0	1	1	6	[1188, 845]	-35	1	0	1	19	[674, 427]	-48	0	1	1	92	[1432, 847]	59	1	0	1	171	[890, 334]	-20	-20	151	171	82	156	143	72	6	19	92
17	8	collaborate	contingent	68.08	795.831189293	377580.465154	373588.077833	378848.908003	381971.951593	385812.258358	None	3840.30676502	4	4	0	158	1	0	1	143	[1048, 311]	15	0	1	1	79	[319, 528]	79	1	0	1	44	[1327, 852]	-66	1	0	1	61	[950, 708]	-83	0	1	1	162	[571, 766]	-4	0	1	1	129	[606, 612]	29	1	0	1	25	[879, 320]	-47	0	1	1	96	[258, 676]	62	15	158	143	79	44	61	162	129	25	96
18	8	collaborate	contingent	47.16	856.861909047	404867.76944	390856.188229	406202.364039	409310.52059	412916.156442	None	3605.63585235	4	4	5	44	0	1	1	33	[272, 825]	11	0	1	1	128	[947, 692]	-84	1	0	1	1	[1356, 138]	43	1	0	1	104	[494, 158]	-60	0	1	1	148	[395, 565]	76	1	0	1	65	[1476, 381]	-21	0	1	1	83	[768, 908]	-39	1	0	1	46	[946, 226]	-2	-21	44	65	33	128	1	104	148	83	46
19	8	collaborate	contingent	100.0	954.766547161	428063.57937	421834.033426	429298.027059	432404.449874	437147.614995	None	4743.1651206	4	4	7	90	0	1	1	140	[857, 691]	-50	0	1	1	165	[1367, 389]	-75	1	0	1	177	[253, 274]	-87	0	1	1	107	[1466, 232]	-17	0	1	1	46	[537, 871]	44	1	0	1	25	[811, 352]	65	1	0	1	12	[1220, 346]	78	1	0	1	90	[622, 180]	0	0	90	90	140	165	177	107	46	25	12
20	8	collaborate	contingent	99.32	1050.40313239	450992.017849	444361.350951	452326.931338	455450.60941	458507.23954	None	3056.63012992	4	4	4	123	1	0	1	161	[901, 267]	-38	1	0	1	134	[175, 647]	-11	1	0	1	100	[491, 215]	23	0	1	1	23	[1170, 648]	-80	1	0	1	121	[290, 762]	2	0	1	1	85	[579, 775]	38	0	1	1	13	[813, 774]	-70	0	1	1	54	[967, 736]	69	2	123	121	161	134	100	23	85	13	54
21	8	collaborate	contingent	84.27	1136.06540929	474155.582118	464802.378627	475405.889278	478530.052283	482269.806012	None	3739.75372882	4	4	7	58	0	1	1	66	[1240, 561]	-8	1	0	1	7	[1018, 590]	51	1	0	1	135	[883, 218]	-77	0	1	1	38	[1476, 376]	20	0	1	1	164	[1438, 837]	74	0	1	1	82	[903, 914]	-24	1	0	1	117	[394, 447]	-59	1	0	1	48	[382, 189]	10	10	58	48	66	7	135	38	164	82	117
22	8	collaborate	contingent	81.3	1207.23867695	493194.562226	489083.305476	494443.616552	497550.725164	500923.487251	None	3372.7620874	4	4	2	122	0	1	1	8	[1236, 491]	-66	0	1	1	52	[1015, 726]	70	1	0	1	133	[845, 201]	-11	0	1	1	75	[613, 778]	47	1	0	1	92	[1456, 174]	30	1	0	1	123	[297, 185]	-1	0	1	1	108	[226, 605]	14	1	0	1	37	[1094, 110]	85	-11	122	133	8	52	75	92	123	108	37
23	8	collaborate	contingent	50.55	1282.51367695	511863.685447	507653.279511	518843.385705	521965.741299	525590.616492	None	3624.87519298	4	4	3	86	0	1	1	57	[407, 835]	29	0	1	1	70	[620, 908]	16	1	0	1	155	[631, 239]	-69	1	0	1	106	[281, 419]	-20	0	1	1	94	[1344, 798]	-8	0	1	1	125	[1124, 817]	-39	1	0	1	17	[1309, 262]	69	1	0	1	29	[556, 468]	57	-20	86	106	57	70	155	94	125	17	29
24	8	collaborate	contingent	91.95	1364.25301937	542391.001872	532669.515052	543707.785905	546832.235178	550321.672216	None	3489.43703788	4	4	4	77	1	0	1	66	[1306, 738]	11	0	1	1	96	[800, 728]	-19	1	0	1	158	[1202, 263]	-81	0	1	1	174	[402, 918]	83	1	0	1	84	[492, 368]	-7	1	0	1	8	[1504, 632]	69	0	1	1	51	[485, 637]	26	0	1	1	18	[957, 867]	59	-7	77	84	66	96	158	174	8	51	18
25	8	collaborate	contingent	17.84	1421.07765748	560976.097899	556032.526431	572013.90691	575120.285374	580498.508547	None	5378.22317327	4	4	4	19	1	0	1	126	[837, 293]	73	1	0	1	25	[1197, 422]	-6	0	1	1	96	[843, 745]	-77	1	0	1	142	[1205, 158]	57	1	0	1	167	[1045, 218]	32	0	1	1	47	[598, 570]	-28	0	1	1	79	[346, 412]	-60	0	1	1	60	[1188, 681]	-41	32	19	167	126	25	96	142	47	79	60
