trialnr	nstim	fixonset	stimonset	maintenanceonset	probeonset	RT	response	stimx0	stimy0	stimori0	stimerror0	stimx1	stimy1	stimori1	stimerror1	stimx2	stimy2	stimori2	stimerror2	stimx3	stimy3	stimori3	stimerror3	E	X	T	NT0	NT1	NT2
0	4	1718.88101481	2989.98578561	7998.36670183	11021.8076095	30509.8500049	154	243	182	31	-57	1250	747	173	-19	450	921	96	58	225	884	158	-4	-57	154	31	173	96	158
1	4	41614.8359628	42750.9561172	47761.265029	50783.063475	7515.79673502	32	698	319	174	38	594	847	23	9	692	598	43	-11	971	112	94	-62	-11	32	43	174	23	94
2	4	58364.6052264	59733.942839	64743.9192998	67766.5307295	5126.90242949	110	842	353	169	-59	684	869	44	66	1295	706	121	-11	964	472	102	8	8	110	102	169	44	121
3	4	72976.851224	74195.9389668	79205.852383	82228.400768	5210.57597219	115	907	724	70	45	188	397	57	58	1210	321	98	17	960	324	131	-16	-16	115	131	70	57	98
4	4	87522.2760465	88858.116385	93868.0858816	96891.219996	11622.6740346	36	1356	804	101	-65	364	444	177	39	811	943	37	-1	939	507	13	23	-1	36	37	101	177	13
5	2	108597.217895	109649.337554	114659.257568	117681.925444	3925.12486154	36	529	675	38	-2	639	812	128	88	nan	nan	nan	nan	nan	nan	nan	nan	-2	36	38	128	nan	nan
6	2	121673.26999	123043.335916	128052.278004	131074.922422	4041.61391558	0	876	776	78	-78	474	734	1	-1	nan	nan	nan	nan	nan	nan	nan	nan	-1	0	1	78	nan	nan
7	2	135183.802125	136301.902484	141311.954452	144334.473881	7565.25825244	72	1268	889	82	-10	793	322	60	12	nan	nan	nan	nan	nan	nan	nan	nan	-10	72	82	60	nan	nan
8	2	151966.793758	153419.593787	158429.087516	161451.740364	10321.2029666	104	663	285	99	5	946	604	115	-11	nan	nan	nan	nan	nan	nan	nan	nan	-11	104	115	99	nan	nan
9	4	171872.372556	173241.714934	178251.431518	181274.730575	9368.2746492	6	568	524	29	-23	1456	407	76	-70	303	242	163	23	556	776	45	-39	23	6	163	29	76	45
10	4	190710.209067	192062.233938	197072.181076	200094.745222	4827.07309009	135	334	229	60	75	977	491	33	-78	1511	251	8	-53	1253	351	126	9	9	135	126	60	33	8
11	2	205004.503299	206223.524699	211233.2893	214256.040014	5061.07494185	70	199	511	152	-82	1239	457	80	-10	nan	nan	nan	nan	nan	nan	nan	nan	-10	70	80	152	nan	nan
12	2	219366.025932	220451.477189	225461.451084	228485.153701	13174.9875927	175	876	156	70	-75	990	933	176	-1	nan	nan	nan	nan	nan	nan	nan	nan	-1	175	176	70	nan	nan
13	4	241710.292271	242846.702358	247855.680733	250879.213642	5260.28783581	156	171	372	151	5	1385	861	140	16	721	340	1	-25	1494	397	31	-55	16	156	140	151	1	31
14	2	256205.809131	257258.011628	262267.473468	265290.283195	3673.81246834	144	1086	231	151	-7	1455	233	43	-79	nan	nan	nan	nan	nan	nan	nan	nan	-7	144	151	43	nan	nan
15	2	269030.855627	270416.906689	275426.792981	278449.575951	3857.89059688	173	991	192	95	78	291	917	178	-5	nan	nan	nan	nan	nan	nan	nan	nan	-5	173	178	95	nan	nan
16	2	282373.96187	283826.902649	288837.140086	291859.27978	3958.37178939	153	363	768	147	6	600	827	71	82	nan	nan	nan	nan	nan	nan	nan	nan	6	153	147	71	nan	nan
17	4	295900.649214	297270.996275	302279.824003	305302.760919	7865.71583984	74	1255	848	160	-86	634	254	134	-60	568	588	96	-22	358	596	47	27	27	74	47	160	134	96
18	4	313251.655107	314403.82161	319413.696539	322436.449453	6279.21481463	30	1427	299	158	52	960	693	17	13	996	506	96	-66	572	357	132	78	13	30	17	158	96	132
19	2	328782.392342	330084.861496	335094.979074	338117.335393	4159.26599815	171	1412	411	159	12	505	926	123	48	nan	nan	nan	nan	nan	nan	nan	nan	12	171	159	123	nan	nan
20	4	342325.715063	343461.174347	348471.075301	351493.759672	5110.81282975	175	325	434	131	44	1223	601	174	1	1091	125	159	16	497	136	84	-89	16	175	159	131	174	84
21	4	356687.441858	358190.91225	363200.675751	366222.998715	3757.69457178	146	1074	117	163	-17	1288	223	9	-43	484	866	123	23	801	642	25	-59	-17	146	163	9	123	25
22	2	370047.470844	371232.915796	376243.78368	379265.428913	8166.67228693	160	1069	198	71	89	304	359	33	-53	nan	nan	nan	nan	nan	nan	nan	nan	-53	160	33	71	nan	nan
23	2	387549.326631	388934.465011	393944.49242	396966.959067	5896.51538621	67	940	778	141	-74	692	593	75	-8	nan	nan	nan	nan	nan	nan	nan	nan	-8	67	75	141	nan	nan
24	2	402928.895449	403947.523699	408957.283901	411980.250874	3723.96674464	72	961	550	56	16	1152	143	38	34	nan	nan	nan	nan	nan	nan	nan	nan	16	72	56	38	nan	nan
25	2	415787.498598	417290.54637	422300.599805	425323.106038	5778.01000065	135	1290	428	90	45	1402	685	131	4	nan	nan	nan	nan	nan	nan	nan	nan	4	135	131	90	nan	nan
26	2	431167.840814	432621.122475	437631.28807	440653.264287	6529.75087804	108	373	690	110	-2	244	340	161	-53	nan	nan	nan	nan	nan	nan	nan	nan	-2	108	110	161	nan	nan
27	2	447266.353691	448719.174613	453729.092061	456751.869899	5427.4604486	134	1277	280	143	-9	613	836	21	-67	nan	nan	nan	nan	nan	nan	nan	nan	-9	134	143	21	nan	nan
28	2	462263.238842	463448.431616	468458.467823	471480.950597	3941.31819185	57	538	152	62	-5	1109	871	46	11	nan	nan	nan	nan	nan	nan	nan	nan	-5	57	62	46	nan	nan
29	4	475522.198707	476874.98488	481884.949612	484907.51669	4893.23266215	50	1387	138	130	-80	1295	622	94	-44	1141	354	115	-65	370	542	27	23	23	50	27	130	94	115
30	2	489850.496037	491036.205265	496046.05307	499069.276987	4992.81656698	100	835	859	98	2	991	506	76	24	nan	nan	nan	nan	nan	nan	nan	nan	2	100	98	76	nan	nan
31	4	504145.387362	505598.261798	510608.700832	513631.424056	4391.63931674	93	1323	146	3	90	506	552	38	55	927	169	146	-53	664	249	87	6	6	93	87	3	38	146
32	4	518106.55108	519609.379295	524620.243147	527641.886547	4342.81447771	114	240	655	58	56	1306	685	152	-38	1508	502	112	2	507	662	89	25	-38	114	152	58	112	89
33	4	532034.072007	533219.498633	538229.391157	541252.147736	5127.14764414	75	1138	809	23	52	1136	144	123	-48	1368	311	40	35	742	555	81	-6	35	75	40	23	123	81
34	4	546462.537506	547731.473832	552741.360124	555764.056224	6429.66811352	152	171	642	153	-1	388	897	15	-43	589	455	166	-14	664	607	54	-82	-14	152	166	153	15	54
35	4	562277.09182	563596.175458	568606.048555	571628.724129	4124.87400219	117	1316	759	155	-38	1361	461	36	81	312	934	175	-58	292	265	111	6	-38	117	155	36	175	111
36	4	575853.851336	577256.615114	582266.409772	585289.150956	5460.90164217	123	332	321	122	1	1253	485	30	-87	323	544	45	78	814	663	147	-24	78	123	45	122	30	147
37	4	590833.504385	591885.363068	596895.281616	599917.947293	4442.43393683	169	409	489	95	74	266	127	114	55	871	778	177	-8	1263	407	12	-23	-8	169	177	95	114	12
38	4	604444.088128	605897.066294	610906.285486	613929.134066	6279.18988997	142	1142	628	42	-80	1168	806	117	25	601	188	87	55	861	650	141	1	1	142	141	42	117	87
39	2	620291.569381	621677.731504	626687.960144	629710.259282	4525.60825329	116	1300	594	103	13	891	602	175	-59	nan	nan	nan	nan	nan	nan	nan	nan	13	116	103	175	nan	nan
40	4	634303.315126	635589.390086	640598.306883	643621.101582	5361.4918434	159	249	941	160	-1	1313	229	92	67	733	615	35	-56	275	561	7	-28	-1	159	160	92	35	7
41	2	649048.349804	650285.027758	655293.965814	658316.790569	3841.03749621	82	1243	941	84	-2	567	248	42	40	nan	nan	nan	nan	nan	nan	nan	nan	-2	82	84	42	nan	nan
42	4	662241.139467	663260.438483	668269.745644	671292.419385	4008.71446678	70	375	782	64	6	1104	276	46	24	1345	556	3	67	1365	138	159	-89	24	70	46	64	3	159
43	4	675383.77632	676753.244054	681762.944145	684786.33337	5209.8436271	158	1487	201	125	33	332	797	136	22	422	146	164	-6	535	717	96	62	-6	158	164	125	136	96
44	2	690063.596364	691515.85868	696525.641975	699549.027902	3422.88200887	11	751	567	106	85	989	319	3	8	nan	nan	nan	nan	nan	nan	nan	nan	8	11	3	106	nan	nan
45	4	703055.106952	704090.640351	709100.775157	712122.983394	4058.18551423	91	181	131	139	-48	1106	833	74	17	488	664	96	-5	412	330	120	-29	-5	91	96	139	74	120
46	2	716264.621061	717383.359932	722393.400537	725416.075011	7531.93838331	89	534	572	59	30	812	182	46	43	nan	nan	nan	nan	nan	nan	nan	nan	43	89	46	59	nan	nan
47	4	733031.497803	734350.330362	739361.043566	742382.778601	5293.97094518	44	1407	779	45	-1	1206	116	148	76	838	731	13	31	827	337	163	61	-1	44	45	148	13	163
48	4	747726.705158	749096.008316	754106.046722	757128.709101	4710.105336	148	534	209	160	-12	380	812	53	-85	172	364	41	-73	1086	620	140	8	8	148	140	160	53	41
49	4	761921.541209	763040.217402	768050.220253	771073.403484	8733.96043284	110	1484	257	77	33	188	853	151	-41	458	585	93	17	887	324	140	-30	-41	110	151	77	93	140
50	4	779890.449897	780975.802189	785985.565691	789009.106297	3088.82928149	140	780	641	136	4	365	522	22	-62	1085	504	161	-21	927	611	150	-10	-21	140	161	136	22	150
51	2	792164.484782	793600.714678	798610.544157	801633.316497	3623.88691243	172	536	755	158	14	1183	856	83	89	nan	nan	nan	nan	nan	nan	nan	nan	14	172	158	83	nan	nan
52	2	805340.526907	806359.268417	811370.001048	814391.872802	3957.88942395	159	1154	241	160	-1	679	513	91	68	nan	nan	nan	nan	nan	nan	nan	nan	-1	159	160	91	nan	nan
53	4	818433.215112	819518.507292	824528.424373	827551.044233	4459.22289315	107	254	358	117	-10	633	843	106	1	590	674	134	-27	174	647	68	39	1	107	106	117	134	68
54	4	832093.412486	833346.932544	838355.648844	841378.751802	3256.30575518	75	1480	740	0	75	196	417	158	-83	679	162	79	-4	832	115	102	-27	-4	75	79	0	158	102
55	2	844668.182428	846071.07926	851081.201603	854103.490845	7281.23151268	51	467	390	120	-69	436	748	24	27	nan	nan	nan	nan	nan	nan	nan	nan	27	51	24	120	nan	nan
56	4	861484.788994	862536.94604	867546.851393	870569.368622	3390.38831884	115	1449	742	1	-66	926	839	125	-10	1032	171	62	53	1273	824	102	13	13	115	102	1	125	62
57	4	874043.086303	875111.662467	880121.583581	883144.328797	5076.81193099	125	460	118	41	84	990	294	7	-62	551	395	143	-18	307	831	158	-33	-33	125	158	41	7	143
58	2	888287.727318	889773.979903	894784.472818	897807.38371	3907.10506696	43	420	864	104	-61	868	207	35	8	nan	nan	nan	nan	nan	nan	nan	nan	8	43	35	104	nan	nan
59	4	901797.951193	902833.245975	907842.994815	910866.724555	4391.25335108	75	1483	702	131	-56	171	759	83	-8	1387	367	104	-29	1086	583	114	-39	-39	75	114	131	83	104
60	4	915341.796965	916493.537916	921503.65806	924526.138269	2922.53526289	131	1143	425	6	-55	683	634	98	33	878	249	171	-40	486	848	81	50	-40	131	171	6	98	81
61	2	927498.724811	928634.126548	933644.476513	936666.790679	3324.26466761	57	257	815	45	12	1375	354	56	1	nan	nan	nan	nan	nan	nan	nan	nan	12	57	45	56	nan	nan
62	2	940073.396886	941476.130608	946486.172679	949509.682863	3005.08426367	121	1181	107	107	14	575	771	132	-11	nan	nan	nan	nan	nan	nan	nan	nan	-11	121	132	107	nan	nan
63	4	952614.997973	953733.810518	958744.232691	961766.417835	2772.1776307	8	1223	621	1	7	741	624	27	-19	529	267	51	-43	874	860	94	-86	7	8	1	27	51	94
64	2	964605.404912	966057.991615	971067.933621	974090.722089	3173.91399966	121	969	746	87	34	1425	491	116	5	nan	nan	nan	nan	nan	nan	nan	nan	5	121	116	87	nan	nan
65	2	977330.302299	978766.613934	983776.520019	986799.817977	3122.25031541	98	1339	674	56	42	178	472	103	-5	nan	nan	nan	nan	nan	nan	nan	nan	-5	98	103	56	nan	nan
66	4	990005.398754	991408.048905	996418.144125	999440.661354	4025.08923394	138	1079	238	12	-54	1128	838	114	24	1281	201	152	-14	1323	655	0	-42	-14	138	152	12	114	0
67	2	1003515.42836	1004634.23981	1009644.23643	1012666.80754	2839.14175606	47	168	319	43	4	1253	372	111	-64	nan	nan	nan	nan	nan	nan	nan	nan	4	47	43	111	nan	nan
68	2	1015589.26033	1017008.66572	1022018.5685	1025041.33095	2989.45686971	99	1319	189	108	-9	1236	787	95	4	nan	nan	nan	nan	nan	nan	nan	nan	-9	99	108	95	nan	nan
69	2	1028097.29194	1029166.09865	1034175.9186	1037198.60847	2806.47139419	112	574	165	46	66	776	466	136	-24	nan	nan	nan	nan	nan	nan	nan	nan	-24	112	136	46	nan	nan
70	2	1040071.6298	1041223.18858	1046233.63861	1049255.73249	3808.27953151	52	304	175	47	5	755	238	35	17	nan	nan	nan	nan	nan	nan	nan	nan	5	52	47	35	nan	nan
71	2	1053130.56489	1054215.50482	1059225.64256	1062248.10151	5428.13048205	131	535	348	124	7	1056	307	139	-8	nan	nan	nan	nan	nan	nan	nan	nan	-8	131	139	124	nan	nan
72	4	1067726.08497	1068994.70021	1074004.61583	1077027.38377	7599.28407586	138	915	785	167	-29	370	346	108	30	634	245	31	-73	213	235	70	68	-29	138	167	108	31	70
73	2	1084692.76327	1085727.80294	1090737.96377	1093760.46341	2922.81016721	101	229	390	88	13	790	707	111	-10	nan	nan	nan	nan	nan	nan	nan	nan	-10	101	111	88	nan	nan
74	2	1096766.45486	1097901.81224	1102911.86164	1105934.41809	8133.57637318	154	470	243	166	-12	719	120	8	-34	nan	nan	nan	nan	nan	nan	nan	nan	-12	154	166	8	nan	nan
75	2	1114150.66333	1115436.6155	1120446.69715	1123469.16966	12374.8708866	165	730	471	21	-36	1141	337	171	-6	nan	nan	nan	nan	nan	nan	nan	nan	-6	165	171	21	nan	nan
76	4	1135927.0349	1137279.66822	1142289.56258	1145312.2015	4208.51748868	68	699	661	115	-47	1037	722	133	-65	1275	743	36	32	1230	530	75	-7	32	68	36	115	133	75
77	4	1149604.4684	1150990.06532	1155999.93879	1159023.27413	5827.648923	72	861	676	25	47	636	484	107	-35	1247	222	179	73	418	524	70	2	47	72	25	107	179	70
78	2	1164901.09493	1166153.34053	1171163.26421	1174185.91412	3040.19247701	54	825	178	33	21	440	422	120	-66	nan	nan	nan	nan	nan	nan	nan	nan	21	54	33	120	nan	nan
79	2	1177292.54438	1178361.08535	1183370.88184	1186393.53139	3657.28118899	94	1309	165	92	2	195	458	76	18	nan	nan	nan	nan	nan	nan	nan	nan	2	94	92	76	nan	nan
