trialnr	nstim	rewtype	rewamount	reward	total	fixonset	stimonset	maintenanceonset	probeonset	t1	rewardonset	RT	nfixself	nfixother	probedstim	response	self_fixated0	other_fixated0	rewarded0	ori0	XYloc0	error0	self_fixated1	other_fixated1	rewarded1	ori1	XYloc1	error1	self_fixated2	other_fixated2	rewarded2	ori2	XYloc2	error2	self_fixated3	other_fixated3	rewarded3	ori3	XYloc3	error3	self_fixated4	other_fixated4	rewarded4	ori4	XYloc4	error4	self_fixated5	other_fixated5	rewarded5	ori5	XYloc5	error5	self_fixated6	other_fixated6	rewarded6	ori6	XYloc6	error6	self_fixated7	other_fixated7	rewarded7	ori7	XYloc7	error7	E	X	T	NT0	NT1	NT2	NT3	NT4	NT5	NT6
1	8	collaborate	contingent	29.05	15.0251844693	30366.112317	11244.5860741	31634.3902044	34741.7278233	41808.0118992	None	7066.28407597	4	4	6	159	1	0	1	32	[880, 798]	-53	1	0	1	153	[693, 758]	6	0	1	1	4	[1288, 374]	-25	0	1	1	18	[667, 502]	-39	1	0	1	94	[493, 389]	65	0	1	1	70	[817, 325]	89	1	0	1	132	[448, 542]	27	0	1	1	58	[1477, 398]	-79	27	159	132	32	153	4	18	94	70	58
2	8	collaborate	contingent	95.81	66.537647289	64466.9827677	50688.7196957	65785.8661365	68909.4380191	74870.1893014	None	5960.75128233	3	5	6	138	0	1	1	160	[1072, 282]	-22	0	1	1	87	[1171, 771]	51	1	0	1	42	[603, 663]	-84	0	1	1	115	[855, 160]	23	0	1	1	22	[1373, 420]	-64	1	0	1	97	[790, 932]	41	1	0	1	143	[194, 576]	-5	0	1	1	70	[374, 366]	68	-5	138	143	160	87	42	115	22	97	70
3	8	collaborate	contingent	1.0	92.3150274599	95010.825286	82785.579505	97782.3111	100904.337665	108001.72712	None	7097.38945445	4	4	1	178	1	0	1	173	[913, 905]	5	1	0	1	91	[708, 632]	87	0	1	1	80	[627, 149]	-82	0	1	1	121	[1372, 617]	57	1	0	1	70	[547, 530]	-72	1	0	1	142	[1141, 693]	36	0	1	1	28	[1080, 514]	-30	0	1	1	40	[257, 328]	-42	87	178	91	173	80	121	70	142	28	40
4	8	collaborate	contingent	89.62	177.775335357	129077.250112	117153.118015	131397.481968	134503.824074	141601.321657	None	7097.49758269	4	4	7	146	0	1	1	20	[326, 874]	-54	0	1	1	149	[876, 173]	-3	1	0	1	89	[401, 722]	57	1	0	1	114	[202, 583]	32	0	1	1	7	[1214, 322]	-41	0	1	1	172	[1322, 170]	-26	1	0	1	58	[642, 599]	88	1	0	1	138	[1234, 747]	8	8	146	138	20	149	89	114	7	172	58
5	8	collaborate	contingent	71.53	262.775543822	160656.053972	148883.173487	161909.427756	165030.785026	172094.656559	None	7063.87153339	4	4	3	14	1	0	1	118	[367, 551]	76	0	1	1	77	[789, 183]	-63	0	1	1	177	[915, 281]	17	1	0	1	28	[1315, 726]	-14	1	0	1	149	[987, 794]	45	1	0	1	7	[1121, 926]	7	0	1	1	63	[1144, 379]	-49	0	1	1	161	[1360, 184]	33	-14	14	28	118	77	177	149	7	63	161
6	8	collaborate	contingent	84.27	326.836485748	190297.586138	179442.186947	191549.567817	194672.251948	201769.528876	None	7097.27692778	3	5	2	110	1	0	1	21	[1415, 838]	89	0	1	1	157	[1177, 251]	-47	1	0	1	100	[650, 788]	10	0	1	1	88	[799, 113]	22	1	0	1	50	[1051, 746]	60	0	1	1	11	[767, 269]	-81	0	1	1	67	[1016, 436]	43	0	1	1	142	[1350, 196]	-32	10	110	100	21	157	88	50	11	67	142
7	8	collaborate	contingent	47.16	370.737600202	221443.111352	208148.658367	222693.774966	225801.492683	232814.010634	None	7012.51795112	4	4	0	136	1	0	1	157	[1047, 802]	-21	0	1	1	108	[771, 375]	28	1	0	1	65	[496, 617]	71	0	1	1	45	[834, 145]	-89	1	0	1	136	[1227, 815]	0	0	1	1	90	[258, 351]	46	0	1	1	27	[1448, 252]	-71	1	0	1	17	[899, 932]	-61	-21	136	157	108	65	45	136	90	27	17
8	8	collaborate	contingent	37.55	433.039877109	255008.318177	239878.517008	256277.338667	259382.802552	266480.241489	None	7097.43893687	4	4	4	10	0	1	1	77	[281, 814]	-67	0	1	1	40	[583, 766]	-30	1	0	1	92	[1224, 543]	-82	1	0	1	107	[1266, 868]	83	1	0	1	166	[1430, 450]	24	1	0	1	60	[1057, 476]	-50	0	1	1	176	[477, 543]	14	0	1	1	9	[298, 281]	1	24	10	166	77	40	92	107	60	176	9
9	8	collaborate	contingent	97.3	523.825756836	282881.322478	271708.850608	284115.13788	287237.773995	294302.012065	None	7064.23806979	3	5	1	17	0	1	1	96	[452, 276]	-79	1	0	1	13	[1435, 674]	4	0	1	1	85	[560, 154]	-68	0	1	1	133	[294, 408]	64	1	0	1	156	[886, 860]	41	1	0	1	72	[1322, 438]	-55	0	1	1	168	[846, 259]	29	0	1	1	179	[643, 407]	18	4	17	13	96	85	133	156	72	168	179
10	8	collaborate	contingent	87.05	604.801476589	310384.020186	300246.654072	311635.78121	314742.025817	321839.350028	None	7097.32421098	4	4	7	70	0	1	1	155	[387, 843]	-85	1	0	1	169	[1467, 596]	81	1	0	1	89	[1278, 222]	-19	1	0	1	41	[586, 507]	29	0	1	1	141	[977, 704]	-71	0	1	1	18	[182, 638]	52	0	1	1	119	[363, 625]	-49	1	0	1	61	[894, 294]	9	9	70	61	155	169	89	41	141	18	119
11	8	collaborate	contingent	91.95	681.299744245	341830.623163	328404.614034	343164.269152	346287.325684	353301.418276	None	7014.09259149	4	4	5	171	0	1	1	124	[728, 298]	47	1	0	1	22	[1335, 596]	-31	0	1	1	10	[268, 378]	-19	1	0	1	163	[1209, 724]	8	0	1	1	89	[523, 677]	82	1	0	1	178	[982, 677]	-7	1	0	1	136	[1330, 164]	35	0	1	1	151	[516, 106]	20	-7	171	178	124	22	10	163	89	136	151
12	8	collaborate	contingent	98.47	734.597323457	375079.333871	360114.580378	376330.462987	379435.958027	386449.864418	None	7013.906391	4	4	7	167	0	1	1	143	[598, 238]	24	1	0	1	36	[1175, 412]	-49	1	0	1	123	[1495, 813]	44	1	0	1	9	[1376, 934]	-22	0	1	1	68	[1270, 177]	-81	0	1	1	19	[289, 394]	-32	0	1	1	83	[327, 751]	84	1	0	1	170	[1002, 393]	-3	-3	167	170	143	36	123	9	68	19	83
13	8	collaborate	contingent	99.32	832.161961571	411617.477848	392311.179873	412885.45261	416007.902525	423073.0628	None	7065.16027537	4	4	1	146	0	1	1	121	[478, 169]	25	1	0	1	148	[1157, 888]	-2	0	1	1	7	[545, 483]	-41	1	0	1	173	[904, 275]	-27	0	1	1	37	[479, 898]	-71	0	1	1	27	[451, 742]	-61	1	0	1	163	[1238, 225]	-17	1	0	1	88	[1470, 338]	58	-2	146	148	121	7	173	37	27	163	88
14	8	collaborate	contingent	78.17	896.524341742	445969.479247	428916.614069	449590.715926	452696.911418	459777.391082	None	7080.47966419	3	5	3	173	0	1	1	108	[438, 480]	65	1	0	1	93	[1271, 356]	80	1	0	1	36	[1143, 534]	-43	1	0	1	161	[1456, 151]	12	0	1	1	126	[694, 915]	47	0	1	1	13	[1152, 718]	-20	0	1	1	67	[1014, 435]	-74	0	1	1	49	[983, 711]	-56	12	173	161	108	93	36	126	13	67	49
15	8	collaborate	contingent	68.08	969.648343235	498872.241539	468962.639311	500123.233936	503230.429705	510243.412425	None	7012.98271927	4	4	6	83	1	0	1	108	[1250, 792]	-25	0	1	1	61	[339, 258]	22	0	1	1	76	[538, 311]	7	1	0	1	145	[1348, 502]	-62	0	1	1	32	[196, 768]	51	1	0	1	18	[1199, 571]	65	1	0	1	98	[1072, 319]	-15	0	1	1	46	[872, 773]	37	-15	83	98	108	61	76	145	32	18	46
16	8	collaborate	contingent	87.05	1060.18434737	579998.399702	516189.300656	581317.130225	584441.242382	591486.676402	None	7045.43401942	4	4	3	1	1	0	1	114	[1269, 273]	67	0	1	1	75	[469, 322]	-74	1	0	1	150	[1273, 787]	31	1	0	1	172	[1408, 144]	9	0	1	1	44	[305, 765]	-43	0	1	1	97	[997, 691]	84	0	1	1	140	[736, 691]	41	1	0	1	23	[1431, 724]	-22	9	1	172	114	75	150	44	97	140	23
17	8	collaborate	contingent	1.0	1070.57150843	645193.724017	600656.145972	646529.465128	649635.319008	656665.260633	None	7029.94162541	4	4	4	163.0	0	1	1	1	[723, 258]	-18.0	1	0	1	167	[1290, 195]	-4.0	0	1	1	105	[556, 913]	58.0	1	0	1	139	[1414, 297]	24.0	1	0	1	73	[981, 218]	90.0	0	1	1	25	[216, 593]	-42.0	0	1	1	124	[333, 134]	39.0	1	0	1	56	[1175, 486]	-73.0	90	163.0	73	1	167	105	139	25	124	56
18	8	collaborate	contingent	68.08	1119.13490327	706714.61366	664079.573586	707966.125439	711088.742861	718119.328124	None	7030.58526333	4	4	2	142	0	1	1	141	[272, 615]	1	0	1	1	24	[539, 538]	-62	1	0	1	157	[1184, 329]	-15	1	0	1	5	[1379, 780]	-43	1	0	1	36	[1121, 646]	-74	0	1	1	77	[239, 264]	65	0	1	1	131	[430, 254]	11	1	0	1	170	[643, 727]	-28	-15	142	157	141	24	5	36	77	131	170
19	8	collaborate	contingent	99.83	1218.96433717	769005.864582	724031.600569	770255.858901	773361.336714	780443.409346	None	7082.07263139	4	4	2	93	1	0	1	29	[1087, 604]	64	0	1	1	117	[365, 595]	-24	1	0	1	92	[1418, 938]	1	0	1	1	81	[574, 554]	12	1	0	1	106	[1134, 917]	-13	0	1	1	66	[205, 520]	27	1	0	1	157	[855, 888]	-64	0	1	1	13	[605, 795]	80	1	93	92	29	117	81	106	66	157	13
20	8	collaborate	contingent	89.62	1309.7509224	845587.977899	785685.613666	846856.362815	849962.648475	857026.007224	None	7063.35874897	4	4	6	155	1	0	1	79	[1336, 188]	76	0	1	1	135	[400, 298]	20	1	0	1	96	[1022, 318]	59	0	1	1	34	[460, 671]	-59	1	0	1	115	[793, 228]	40	0	1	1	67	[241, 870]	88	1	0	1	147	[626, 181]	8	0	1	1	175	[679, 468]	-20	8	155	147	79	135	96	34	115	67	175
21	8	collaborate	contingent	89.62	1403.79613086	896438.924406	864524.90065	897691.506105	900812.206908	907843.936865	None	7031.72995651	4	4	0	158	1	0	1	150	[1448, 581]	8	0	1	1	54	[637, 697]	-76	1	0	1	16	[852, 239]	-38	1	0	1	120	[1299, 468]	38	1	0	1	97	[1179, 322]	61	0	1	1	74	[541, 488]	84	0	1	1	163	[1095, 787]	-5	0	1	1	177	[365, 762]	-19	8	158	150	54	16	120	97	74	163	177
22	8	collaborate	contingent	98.47	1481.79032996	960715.009519	913720.868603	961982.378396	965106.428975	972136.885951	None	7030.45697559	4	4	0	18	1	0	1	15	[1065, 812]	3	1	0	1	86	[1418, 766]	-68	0	1	1	53	[689, 166]	-35	0	1	1	162	[483, 359]	36	0	1	1	143	[344, 460]	55	1	0	1	101	[857, 866]	-83	0	1	1	64	[328, 667]	-46	1	0	1	114	[998, 379]	84	3	18	15	86	53	162	143	101	64	114
23	8	collaborate	contingent	99.83	1581.70532996	998873.429483	978014.229676	1000140.79469	1003263.99161	1010327.76565	None	7063.77403471	4	4	6	5	1	0	1	98	[1111, 319]	87	1	0	1	29	[993, 840]	-24	0	1	1	48	[577, 887]	-43	1	0	1	16	[800, 696]	-11	0	1	1	174	[487, 159]	11	0	1	1	59	[261, 711]	-54	1	0	1	6	[1239, 662]	-1	0	1	1	86	[325, 507]	-81	-1	5	6	98	29	48	16	174	59	86
24	8	collaborate	contingent	99.83	1679.52496808	1044696.1164	1015554.5047	1045964.32061	1049070.72833	1056101.18604	None	7030.45770866	3	5	4	127	1	0	1	55	[1193, 935]	72	0	1	1	109	[188, 238]	18	0	1	1	142	[431, 202]	-15	0	1	1	173	[490, 633]	-46	1	0	1	128	[1459, 197]	-1	1	0	1	71	[1123, 441]	56	0	1	1	89	[640, 366]	38	0	1	1	27	[214, 729]	-80	-1	127	128	55	109	142	173	71	89	27
25	8	collaborate	contingent	98.47	1773.57154735	1089067.29792	1061996.21771	1090301.58945	1093424.66174	1100472.29645	None	7047.63470396	4	4	4	177	0	1	1	19	[279, 743]	-22	0	1	1	104	[437, 436]	73	1	0	1	51	[949, 925]	-54	0	1	1	120	[689, 695]	57	1	0	1	174	[1381, 755]	3	0	1	1	137	[171, 340]	40	1	0	1	41	[1064, 291]	-44	1	0	1	29	[1074, 680]	-32	3	177	174	19	104	51	120	137	41	29
