trialnr	nstim	rewtype	rewamount	reward	total	fixonset	stimonset	maintenanceonset	probeonset	t1	rewardonset	RT	nfixself	nfixother	probedstim	response	self_fixated0	other_fixated0	rewarded0	ori0	XYloc0	error0	self_fixated1	other_fixated1	rewarded1	ori1	XYloc1	error1	self_fixated2	other_fixated2	rewarded2	ori2	XYloc2	error2	self_fixated3	other_fixated3	rewarded3	ori3	XYloc3	error3	self_fixated4	other_fixated4	rewarded4	ori4	XYloc4	error4	self_fixated5	other_fixated5	rewarded5	ori5	XYloc5	error5	self_fixated6	other_fixated6	rewarded6	ori6	XYloc6	error6	self_fixated7	other_fixated7	rewarded7	ori7	XYloc7	error7	E	X	T	NT0	NT1	NT2	NT3	NT4	NT5	NT6
1	8	collaborate	contingent	1.02	1.78723963223	56489.8296394	28465.8851705	57591.4097243	60748.1276603	67779.2517679	None	7031.12410754	6	2	1	64	1	0	1	97	[1342, 758]	-33	1	0	1	173	[1175, 237]	71	1	0	1	59	[749, 665]	5	1	0	1	153	[316, 236]	-89	0	1	1	78	[1274, 107]	-14	1	0	1	34	[1101, 808]	30	1	0	1	107	[1441, 363]	-43	0	1	1	13	[1060, 350]	51	71	64	173	97	59	153	78	34	107	13
2	8	collaborate	contingent	81.3	43.3973780059	84596.7764932	75377.8902462	85933.219977	89056.7619566	96136.803492	None	7080.04153546	4	4	5	86	1	0	1	54	[370, 787]	32	0	1	1	6	[1485, 755]	80	1	0	1	117	[1091, 856]	-31	0	1	1	72	[328, 482]	14	0	1	1	17	[898, 150]	69	1	0	1	97	[228, 263]	-11	0	1	1	128	[1203, 249]	-42	1	0	1	171	[628, 862]	-85	-11	86	97	54	6	117	72	17	128	171
3	8	collaborate	contingent	74.9	81.4113988626	108613.689769	105355.381485	109881.132776	113005.104698	120018.674098	None	7013.56939981	4	4	7	133	0	1	1	99	[1085, 928]	34	1	0	1	157	[532, 840]	-24	1	0	1	37	[275, 669]	-84	0	1	1	143	[547, 177]	-10	0	1	1	77	[1386, 824]	56	0	1	1	177	[1349, 385]	-44	1	0	1	58	[395, 401]	75	1	0	1	120	[372, 173]	13	13	133	120	99	157	37	143	77	177	58
4	8	collaborate	contingent	61.05	120.854180853	131559.43013	127484.634774	132827.645787	135951.846792	143048.831659	None	7096.98486697	4	4	4	49	1	0	1	123	[1139, 926]	-74	0	1	1	87	[610, 802]	-38	1	0	1	52	[175, 316]	-3	1	0	1	174	[240, 780]	55	1	0	1	66	[1303, 837]	-17	0	1	1	153	[498, 116]	76	0	1	1	25	[577, 547]	24	0	1	1	102	[762, 885]	-53	-17	49	66	123	87	52	174	153	25	102
5	8	collaborate	contingent	99.83	173.970305363	154675.221047	152250.818192	155941.415277	159064.743202	166179.213868	None	7114.47066659	4	4	1	139	0	1	1	3	[792, 124]	-44	1	0	1	140	[375, 675]	-1	1	0	1	38	[690, 943]	-79	0	1	1	168	[1499, 162]	-29	1	0	1	120	[988, 629]	19	0	1	1	24	[780, 305]	-65	0	1	1	108	[960, 301]	31	1	0	1	158	[280, 251]	-19	-1	139	140	3	38	168	120	24	108	158
6	8	collaborate	contingent	98.47	241.978457334	177352.488444	173561.132673	178620.884069	181744.190368	188791.8209	None	7047.6305323	4	4	1	29	0	1	1	150	[1126, 113]	59	1	0	1	26	[470, 485]	3	1	0	1	58	[523, 921]	-29	0	1	1	45	[744, 929]	-16	1	0	1	112	[1162, 866]	-83	0	1	1	73	[927, 246]	-44	0	1	1	5	[751, 113]	24	1	0	1	102	[1344, 912]	-73	3	29	26	150	58	45	112	73	5	102
7	8	collaborate	contingent	99.32	327.40279975	200233.170385	194236.151394	201501.014012	204624.833457	211721.8832	None	7097.04974323	4	4	5	112	1	0	1	87	[468, 696]	25	0	1	1	99	[1016, 404]	13	0	1	1	57	[1492, 742]	55	1	0	1	35	[624, 150]	77	1	0	1	150	[597, 796]	-38	1	0	1	110	[258, 862]	2	0	1	1	5	[1314, 396]	-73	0	1	1	20	[708, 312]	-88	2	112	110	87	99	57	35	150	5	20
8	8	collaborate	contingent	57.52	402.139384975	220657.117273	217350.053569	222009.027329	225132.402903	231428.57766	None	6296.17475683	4	4	5	120	1	0	1	28	[671, 472]	-88	0	1	1	49	[697, 194]	71	1	0	1	71	[276, 504]	49	0	1	1	10	[1070, 833]	-70	0	1	1	141	[1113, 642]	-21	1	0	1	102	[428, 382]	18	0	1	1	163	[967, 188]	-43	1	0	1	81	[282, 268]	39	18	120	102	28	49	71	10	141	163	81
9	8	collaborate	contingent	1.0	452.553818877	242033.929914	238526.739096	243469.287325	246593.439948	253657.237862	None	7063.7979145	4	4	5	163	0	1	1	130	[842, 304]	33	0	1	1	75	[652, 225]	88	1	0	1	13	[545, 511]	-30	1	0	1	49	[175, 345]	-66	1	0	1	89	[198, 516]	74	1	0	1	63	[448, 834]	-80	0	1	1	101	[1380, 216]	62	0	1	1	148	[969, 631]	15	-80	163	63	130	75	13	49	89	101	148
10	8	collaborate	contingent	5.68	461.151857841	263444.137331	258801.626011	264545.527186	267669.701067	274750.699252	None	7080.9981853	4	4	0	147	1	0	1	105	[331, 225]	42	0	1	1	29	[1093, 444]	-62	0	1	1	90	[746, 211]	57	0	1	1	118	[1352, 567]	29	1	0	1	0	[187, 437]	-33	1	0	1	80	[915, 771]	67	0	1	1	143	[1371, 340]	4	1	0	1	50	[501, 785]	-83	42	147	105	29	90	118	0	80	143	50
11	8	collaborate	contingent	3.17	483.057972295	285556.330365	282565.679876	286808.082848	289930.884065	295542.370608	None	5611.48654221	4	4	1	31	1	0	1	148	[359, 573]	63	1	0	1	78	[321, 864]	-47	0	1	1	135	[423, 135]	76	0	1	1	55	[1254, 931]	-24	0	1	1	29	[1472, 221]	2	1	0	1	172	[172, 440]	39	1	0	1	97	[626, 622]	-66	0	1	1	13	[610, 848]	18	-47	31	78	148	135	55	29	172	97	13
12	8	collaborate	contingent	87.05	541.106367134	310723.616532	306230.556275	312058.925964	315182.824214	322263.360201	None	7080.53598781	4	4	2	51	1	0	1	84	[1134, 892]	-33	1	0	1	130	[415, 873]	-79	1	0	1	60	[1365, 539]	-9	0	1	1	165	[1494, 173]	66	0	1	1	102	[1293, 361]	-51	0	1	1	32	[536, 290]	19	0	1	1	50	[966, 380]	1	1	0	1	152	[574, 610]	79	-9	51	60	84	130	165	102	32	50	152
13	8	collaborate	contingent	95.81	624.775709549	337210.799807	331431.795082	338630.071939	341753.457043	348800.418653	None	7046.96161049	4	4	0	9	1	0	1	4	[237, 315]	5	0	1	1	99	[791, 368]	90	0	1	1	72	[1045, 193]	-63	1	0	1	21	[233, 721]	-12	0	1	1	127	[1382, 578]	62	0	1	1	32	[1430, 193]	-23	1	0	1	49	[508, 144]	-40	1	0	1	172	[979, 922]	17	5	9	4	99	72	21	127	32	49	172
14	8	collaborate	contingent	89.62	688.35886152	363031.966399	358002.591751	364515.637559	367638.906106	374703.423157	None	7064.51705128	4	4	7	79	1	0	1	101	[925, 834]	-22	0	1	1	72	[1384, 655]	7	0	1	1	136	[866, 343]	-57	0	1	1	158	[712, 271]	-79	0	1	1	170	[1189, 308]	89	1	0	1	125	[1329, 830]	-46	1	0	1	48	[374, 141]	31	1	0	1	87	[475, 821]	-8	-8	79	87	101	72	136	158	170	125	48
15	8	collaborate	contingent	99.83	781.801138428	388481.637638	383170.976417	389583.998071	392706.705456	399720.679507	None	7013.9740517	4	4	6	42	0	1	1	126	[769, 334]	-84	0	1	1	159	[1432, 662]	63	0	1	1	140	[415, 235]	82	1	0	1	66	[1133, 655]	-24	1	0	1	17	[497, 459]	25	1	0	1	4	[275, 413]	38	1	0	1	41	[840, 872]	1	0	1	1	114	[1183, 294]	-72	1	42	41	126	159	140	66	17	4	114
16	8	collaborate	contingent	89.62	855.370337526	411512.390448	406868.956933	413264.604579	416387.946065	423487.597456	None	7099.65139094	4	4	6	149	0	1	1	76	[1458, 933]	73	0	1	1	50	[1167, 201]	-81	1	0	1	32	[370, 425]	-63	0	1	1	125	[1117, 465]	24	1	0	1	103	[620, 539]	46	0	1	1	177	[652, 155]	-28	1	0	1	141	[241, 778]	8	1	0	1	163	[518, 701]	-14	8	149	141	76	50	32	125	103	177	163
17	8	collaborate	contingent	94.02	924.306279451	435778.094258	432654.333825	437280.90208	440403.550087	447434.716346	None	7031.16625878	4	4	0	140	1	0	1	134	[301, 934]	6	0	1	1	4	[1204, 735]	-44	0	1	1	118	[1475, 765]	22	1	0	1	17	[460, 861]	-57	0	1	1	55	[629, 270]	85	1	0	1	159	[227, 715]	-19	1	0	1	27	[215, 434]	-67	0	1	1	39	[758, 719]	-79	6	140	134	4	118	17	55	159	27	39
18	8	collaborate	contingent	81.3	966.945886652	454968.086381	452795.530576	456319.828932	459442.222932	464753.00914	None	5310.78620855	4	4	5	18	0	1	1	145	[1288, 372]	53	0	1	1	177	[1214, 722]	21	0	1	1	61	[936, 179]	-43	1	0	1	20	[469, 291]	-2	1	0	1	116	[1057, 903]	82	1	0	1	7	[523, 668]	11	0	1	1	162	[937, 342]	36	1	0	1	73	[900, 716]	-55	11	18	7	145	177	61	20	116	162	73
19	8	collaborate	contingent	61.05	1029.75816301	477028.948004	472318.630004	478380.364707	481503.633987	488518.128881	None	7014.49489439	4	4	2	129	0	1	1	56	[741, 680]	73	0	1	1	126	[1458, 562]	3	1	0	1	146	[206, 365]	-17	1	0	1	102	[490, 267]	27	0	1	1	114	[414, 684]	15	1	0	1	136	[519, 474]	-7	1	0	1	77	[285, 190]	52	0	1	1	15	[344, 848]	-66	-17	129	146	56	126	102	114	136	77	15
20	8	collaborate	contingent	19.77	1086.65416714	498755.837672	494547.044264	500408.766944	503531.948256	510546.858432	None	7014.91017571	4	4	3	0	1	0	1	112	[185, 670]	68	0	1	1	81	[1234, 547]	-81	0	1	1	50	[1375, 438]	-50	1	0	1	31	[366, 315]	-31	0	1	1	70	[1040, 431]	-70	0	1	1	125	[467, 187]	55	1	0	1	1	[549, 335]	-1	1	0	1	149	[223, 136]	31	-31	0	31	112	81	50	70	125	1	149
21	8	collaborate	contingent	1.07	1126.27316863	519431.224024	516391.16752	520533.95832	523656.308702	530670.575614	None	7014.26691117	4	4	0	157	1	0	1	92	[215, 132]	65	1	0	1	169	[824, 841]	-12	1	0	1	42	[677, 650]	-65	1	0	1	52	[1258, 843]	-75	0	1	1	179	[1165, 110]	-22	0	1	1	130	[1348, 335]	27	0	1	1	116	[1281, 493]	41	0	1	1	17	[971, 411]	-40	65	157	92	169	42	52	179	130	116	17
22	8	collaborate	contingent	74.9	1197.76184573	541993.930588	539905.730772	543245.617829	546369.035554	553383.532648	None	7014.49709358	4	4	6	41	1	0	1	41	[1325, 797]	0	0	1	1	60	[663, 195]	-19	0	1	1	5	[1401, 293]	36	0	1	1	147	[1011, 140]	74	1	0	1	78	[896, 866]	-37	0	1	1	111	[959, 359]	-70	1	0	1	28	[579, 898]	13	1	0	1	96	[529, 654]	-55	13	41	28	41	60	5	147	78	111	96
23	8	collaborate	contingent	78.17	1247.77885866	566944.583218	560313.87901	568279.923072	571403.195284	578501.016211	None	7097.82092761	4	4	1	16	0	1	1	128	[1462, 776]	68	1	0	1	4	[323, 298]	12	1	0	1	157	[603, 561]	39	1	0	1	80	[432, 591]	-64	0	1	1	14	[997, 209]	2	1	0	1	46	[346, 811]	-30	0	1	1	145	[688, 388]	51	0	1	1	100	[786, 143]	-84	12	16	4	128	157	80	14	46	145	100
24	8	collaborate	contingent	99.83	1336.77786015	590425.960251	586784.379924	591694.379701	594818.39414	601831.808864	None	7013.4147231	4	4	3	140	0	1	1	155	[1261, 605]	-15	1	0	1	57	[613, 924]	83	0	1	1	11	[1024, 687]	-51	1	0	1	139	[1396, 753]	1	0	1	1	34	[757, 679]	-74	0	1	1	112	[721, 327]	28	1	0	1	102	[489, 815]	38	1	0	1	80	[234, 353]	60	1	140	139	155	57	11	34	112	102	80
25	8	collaborate	contingent	78.17	1423.76749826	610332.660502	608495.179914	611617.98663	614741.505151	621772.363156	None	7030.85800494	4	4	5	66	1	0	1	102	[559, 420]	-36	0	1	1	85	[967, 699]	-19	0	1	1	70	[1129, 830]	-4	1	0	1	31	[426, 552]	35	1	0	1	16	[604, 900]	50	1	0	1	54	[276, 543]	12	0	1	1	160	[938, 269]	86	0	1	1	115	[779, 837]	-49	12	66	54	102	85	70	31	16	160	115
