trialnr	nstim	rewtype	rewamount	reward	total	fixonset	stimonset	maintenanceonset	probeonset	t1	rewardonset	RT	nfixself	nfixother	probedstim	response	self_fixated0	other_fixated0	rewarded0	ori0	XYloc0	error0	self_fixated1	other_fixated1	rewarded1	ori1	XYloc1	error1	self_fixated2	other_fixated2	rewarded2	ori2	XYloc2	error2	self_fixated3	other_fixated3	rewarded3	ori3	XYloc3	error3	self_fixated4	other_fixated4	rewarded4	ori4	XYloc4	error4	self_fixated5	other_fixated5	rewarded5	ori5	XYloc5	error5	self_fixated6	other_fixated6	rewarded6	ori6	XYloc6	error6	self_fixated7	other_fixated7	rewarded7	ori7	XYloc7	error7	E	X	T	NT0	NT1	NT2	NT3	NT4	NT5	NT6
1	8	collaborate	contingent	31.74	59.3972769076	17597.1092942	9381.29599771	18849.8237522	21988.5615782	29052.3230732	None	7063.76149496	4	4	4	50	0	1	1	15	[473, 609]	35	1	0	1	94	[1038, 281]	-44	0	1	1	151	[590, 858]	79	0	1	1	109	[740, 338]	-59	1	0	1	76	[1101, 884]	-26	1	0	1	167	[246, 876]	63	0	1	1	177	[1348, 600]	53	1	0	1	29	[407, 352]	21	-26	50	76	15	94	151	109	167	177	29
2	8	collaborate	contingent	71.53	123.921476005	37720.0436469	34646.8717619	39155.3495065	42295.1741054	49392.6633119	None	7097.4892065	4	4	0	171	1	0	1	5	[1254, 440]	-14	0	1	1	86	[509, 715]	85	0	1	1	38	[625, 250]	-47	1	0	1	56	[1131, 892]	-65	0	1	1	124	[1176, 270]	47	1	0	1	161	[1441, 638]	10	0	1	1	21	[351, 309]	-30	1	0	1	103	[1058, 656]	68	-14	171	5	86	38	56	124	161	21	103
3	8	collaborate	contingent	74.9	203.507355731	59681.2661985	54769.3516126	61115.9661777	64238.1747934	71285.4063449	None	7047.23155153	4	4	3	130	0	1	1	129	[659, 416]	1	1	0	1	163	[1298, 635]	-33	1	0	1	7	[760, 752]	-57	1	0	1	117	[1183, 751]	13	0	1	1	30	[1457, 366]	-80	1	0	1	153	[1493, 648]	-23	0	1	1	69	[891, 110]	61	0	1	1	88	[1248, 107]	42	13	130	117	129	163	7	30	153	69	88
4	8	collaborate	contingent	97.3	301.392564197	80019.6377839	76261.5090712	81204.8799583	84328.5385819	91375.0586912	None	7046.52010933	4	4	2	109	0	1	1	178	[252, 110]	-69	0	1	1	96	[247, 563]	13	1	0	1	113	[1353, 729]	-4	1	0	1	147	[852, 287]	-38	1	0	1	42	[1026, 665]	67	0	1	1	11	[296, 288]	-82	0	1	1	23	[469, 570]	86	1	0	1	81	[1187, 699]	28	-4	109	113	178	96	147	42	11	23	81
5	8	collaborate	contingent	100.0	396.204143468	100576.96606	96083.687008	101845.469697	104967.871109	112048.631344	None	7080.76023518	4	4	7	122	0	1	1	14	[288, 454]	-72	1	0	1	53	[1438, 611]	69	0	1	1	89	[568, 600]	33	1	0	1	38	[945, 288]	84	0	1	1	107	[337, 644]	15	1	0	1	1	[1410, 269]	-59	0	1	1	66	[851, 763]	56	1	0	1	122	[1057, 661]	0	0	122	122	14	53	89	38	107	1	66
6	8	collaborate	contingent	94.02	475.501419825	127245.567781	117059.250929	128664.488845	131804.391515	138886.527719	None	7082.13620324	4	4	4	74	0	1	1	83	[609, 733]	-9	0	1	1	55	[427, 778]	19	0	1	1	106	[222, 387]	-32	1	0	1	36	[1175, 708]	38	1	0	1	68	[959, 404]	6	1	0	1	127	[661, 501]	-53	0	1	1	142	[475, 933]	-68	1	0	1	173	[954, 901]	81	6	74	68	83	55	106	36	127	142	173
7	8	collaborate	contingent	68.08	559.455853727	150424.483215	144445.305636	151675.816207	154782.168568	161829.343307	None	7047.17473878	4	4	6	121	0	1	1	150	[669, 288]	-29	0	1	1	72	[895, 160]	49	0	1	1	118	[276, 514]	3	1	0	1	35	[1238, 770]	86	1	0	1	100	[1101, 129]	21	0	1	1	20	[435, 113]	-79	1	0	1	136	[1328, 400]	-15	1	0	1	160	[1042, 744]	-39	-15	121	136	150	72	118	35	100	20	160
8	8	collaborate	contingent	16.04	617.390287629	175039.212524	167122.962209	176457.715373	179597.915669	186661.450646	None	7063.53497704	4	4	4	35	1	0	1	102	[187, 357]	-67	0	1	1	151	[1282, 391]	64	0	1	1	48	[1397, 748]	-13	1	0	1	19	[710, 720]	16	1	0	1	68	[1000, 795]	-33	0	1	1	91	[1046, 275]	-56	0	1	1	79	[1381, 169]	-44	1	0	1	163	[853, 248]	52	-33	35	68	102	151	48	19	91	79	163
9	8	collaborate	contingent	74.9	695.490595526	198202.11446	191438.172521	199804.440264	202926.699462	209974.211045	None	7047.51158339	4	4	1	62	1	0	1	175	[1177, 519]	67	1	0	1	75	[600, 904]	-13	0	1	1	96	[1474, 527]	-34	1	0	1	5	[1243, 199]	57	1	0	1	158	[1196, 882]	84	0	1	1	127	[366, 770]	-65	0	1	1	50	[545, 523]	12	0	1	1	117	[567, 150]	-55	-13	62	75	175	96	5	158	127	50	117
10	8	collaborate	contingent	29.05	744.054272626	222933.014107	215050.670006	224218.033759	227342.982581	234422.277781	None	7079.2951994	4	4	2	53	1	0	1	168	[1379, 231]	65	0	1	1	153	[1057, 495]	80	1	0	1	26	[448, 892]	27	0	1	1	3	[389, 528]	50	0	1	1	108	[557, 349]	-55	1	0	1	84	[479, 673]	-31	1	0	1	66	[798, 786]	-13	0	1	1	138	[1090, 907]	-85	27	53	26	168	153	3	108	84	66	138
11	8	collaborate	contingent	87.05	832.390851897	244025.133592	239131.016057	245276.088688	248416.026912	255479.695674	None	7063.6687619	3	5	7	44	0	1	1	102	[615, 432]	-58	1	0	1	20	[1149, 567]	24	0	1	1	55	[1475, 711]	-11	0	1	1	159	[1308, 944]	65	0	1	1	9	[1013, 202]	35	1	0	1	118	[665, 614]	-74	0	1	1	178	[1165, 284]	46	1	0	1	35	[1163, 779]	9	9	44	35	102	20	55	159	9	118	178
12	8	collaborate	contingent	1.13	880.860490011	263145.028646	260306.671539	264397.021766	267536.810444	274651.443539	None	7114.63309412	4	4	7	16	1	0	1	168	[424, 872]	28	0	1	1	116	[585, 156]	80	1	0	1	51	[1093, 886]	-35	1	0	1	31	[281, 751]	-15	0	1	1	178	[203, 355]	18	0	1	1	67	[365, 315]	-51	0	1	1	101	[1209, 404]	-85	1	0	1	78	[422, 519]	-62	-62	16	78	168	116	51	31	178	67	101
13	8	collaborate	contingent	81.3	965.037766918	285372.217687	279777.193604	286641.454392	289763.510163	296844.173999	None	7080.66383678	3	5	5	22	1	0	1	128	[1210, 898]	74	1	0	1	73	[751, 311]	-51	0	1	1	37	[537, 255]	-15	0	1	1	177	[1489, 216]	25	0	1	1	154	[1452, 769]	48	1	0	1	11	[587, 106]	11	0	1	1	63	[499, 712]	-41	0	1	1	53	[1274, 516]	-31	11	22	11	128	73	37	177	154	63	53
14	8	collaborate	contingent	74.9	1052.40220082	306947.874489	301703.720795	308302.005563	311422.649812	318454.183086	None	7031.53327339	4	4	1	26	0	1	1	125	[1419, 377]	81	1	0	1	39	[571, 880]	-13	0	1	1	163	[172, 435]	43	0	1	1	90	[183, 606]	-64	1	0	1	49	[374, 377]	-23	0	1	1	147	[1497, 157]	59	1	0	1	24	[1258, 561]	2	1	0	1	137	[621, 564]	69	-13	26	39	125	163	90	49	147	24	137
15	8	collaborate	contingent	47.16	1113.43292057	326218.872754	323312.577866	327487.212917	330611.366728	337641.055969	None	7029.68924161	4	4	2	139	0	1	1	112	[1138, 431]	27	0	1	1	133	[776, 236]	6	1	0	1	160	[1038, 894]	-21	1	0	1	85	[308, 768]	54	1	0	1	68	[837, 838]	71	0	1	1	95	[740, 676]	44	0	1	1	178	[229, 212]	-39	1	0	1	36	[1317, 641]	-77	-21	139	160	112	133	85	68	95	178	36
16	8	collaborate	contingent	7.21	1152.80226299	346792.834703	342550.832563	348061.734563	351183.898461	358214.656149	None	7030.75768777	4	4	6	5	1	0	1	173	[858, 809]	12	0	1	1	134	[232, 645]	51	0	1	1	101	[1449, 895]	84	1	0	1	89	[722, 920]	-84	0	1	1	57	[275, 274]	-52	0	1	1	159	[1055, 375]	26	1	0	1	45	[435, 584]	-40	1	0	1	22	[1169, 559]	-17	-40	5	45	173	134	101	89	57	159	22
17	8	collaborate	contingent	12.89	1176.53515295	367366.372572	364476.545316	368484.227865	371609.150298	378704.744891	None	7095.59459304	4	4	1	47	0	1	1	133	[408, 326]	-86	1	0	1	12	[784, 191]	35	1	0	1	155	[1369, 633]	72	0	1	1	32	[392, 770]	15	0	1	1	78	[273, 520]	-31	1	0	1	121	[1018, 212]	-74	1	0	1	167	[1198, 476]	60	0	1	1	98	[283, 195]	-51	35	47	12	133	155	32	78	121	167	98
18	8	collaborate	contingent	29.05	1240.97458685	387155.01706	383898.434571	388257.450808	391379.512444	398426.621573	None	7047.10912922	4	4	0	73	1	0	1	46	[489, 265]	27	0	1	1	16	[864, 713]	57	1	0	1	68	[1019, 282]	5	0	1	1	144	[394, 867]	-71	1	0	1	96	[534, 425]	-23	0	1	1	126	[261, 635]	-53	1	0	1	171	[673, 305]	82	0	1	1	30	[475, 644]	43	27	73	46	16	68	144	96	126	171	30
19	8	collaborate	contingent	1.01	1282.12989475	407728.532937	403386.270962	408997.025211	412121.058066	419151.371881	None	7030.31381528	5	3	7	60	0	1	1	99	[804, 856]	-39	0	1	1	113	[1191, 661]	-53	1	0	1	142	[1015, 513]	-82	1	0	1	177	[563, 227]	63	1	0	1	58	[578, 390]	2	0	1	1	81	[302, 639]	-21	1	0	1	32	[704, 286]	28	1	0	1	167	[974, 276]	73	73	60	167	99	113	142	177	58	81	32
20	8	collaborate	contingent	87.05	1375.56932865	427467.308296	424461.230432	428568.704387	431691.832636	438722.482197	None	7030.64956029	4	4	0	0	1	0	1	171	[1013, 518]	9	0	1	1	79	[567, 665]	-79	0	1	1	97	[504, 811]	83	1	0	1	8	[1082, 114]	-8	1	0	1	161	[1004, 864]	19	0	1	1	143	[1262, 934]	37	1	0	1	123	[856, 803]	57	0	1	1	67	[317, 719]	-67	9	0	171	79	97	8	161	143	123	67
21	8	collaborate	contingent	4.48	1419.94520838	448241.230953	444184.182525	449359.463043	452483.326559	459580.03798	None	7096.71142167	4	4	5	51	0	1	1	65	[417, 746]	-14	1	0	1	19	[375, 923]	32	1	0	1	97	[1392, 770]	-46	0	1	1	34	[626, 197]	17	0	1	1	82	[507, 551]	-31	1	0	1	7	[985, 776]	44	0	1	1	140	[201, 248]	-89	1	0	1	151	[970, 926]	80	44	51	7	65	19	97	34	82	140	151
22	8	collaborate	contingent	1.44	1469.90041684	468431.013382	465258.649008	469599.138059	472722.433814	479770.95813	None	7048.5243164	4	4	2	165	1	0	1	135	[1153, 592]	30	1	0	1	23	[847, 297]	-38	1	0	1	109	[1326, 211]	56	0	1	1	89	[437, 679]	76	0	1	1	177	[490, 941]	-12	0	1	1	152	[384, 418]	13	0	1	1	167	[670, 349]	-2	1	0	1	68	[1164, 114]	-83	56	165	109	135	23	89	177	152	167	68
23	8	collaborate	contingent	8.13	1520.97642097	489306.066025	484812.962543	490506.906047	493630.1164	500693.729815	None	7063.61341529	5	3	7	50	0	1	1	169	[354, 821]	61	1	0	1	73	[386, 336]	-23	1	0	1	23	[758, 696]	27	0	1	1	147	[1484, 749]	83	0	1	1	122	[521, 762]	-72	1	0	1	62	[657, 345]	-12	1	0	1	50	[1209, 585]	0	1	0	1	11	[195, 163]	39	39	50	11	169	73	23	147	122	62	50
24	8	collaborate	contingent	94.02	1611.51369788	512935.080625	505837.63247	514620.732401	517743.841223	524757.833286	None	7013.99206308	4	4	7	93	1	0	1	21	[1218, 596]	72	1	0	1	40	[209, 255]	53	0	1	1	178	[213, 895]	-85	0	1	1	139	[488, 613]	-46	0	1	1	76	[694, 807]	17	1	0	1	117	[1049, 460]	-24	0	1	1	150	[224, 485]	-57	1	0	1	99	[1326, 179]	-6	-6	93	99	21	40	178	139	76	117	150
25	8	collaborate	contingent	17.84	1668.33833599	533441.986672	530519.202892	535044.968938	538150.602893	545164.835402	None	7014.23250928	4	4	1	71	0	1	1	160	[795, 934]	-89	1	0	1	39	[1028, 241]	32	1	0	1	78	[1161, 919]	-7	0	1	1	142	[173, 742]	-71	1	0	1	88	[972, 901]	-17	1	0	1	174	[1324, 778]	77	0	1	1	119	[338, 345]	-48	0	1	1	21	[607, 911]	50	32	71	39	160	78	142	88	174	119	21
