trialnr	nstim	rewtype	rewamount	reward	total	fixonset	stimonset	maintenanceonset	probeonset	t1	rewardonset	RT	nfixself	nfixother	probedstim	response	self_fixated0	other_fixated0	rewarded0	ori0	XYloc0	error0	self_fixated1	other_fixated1	rewarded1	ori1	XYloc1	error1	self_fixated2	other_fixated2	rewarded2	ori2	XYloc2	error2	self_fixated3	other_fixated3	rewarded3	ori3	XYloc3	error3	self_fixated4	other_fixated4	rewarded4	ori4	XYloc4	error4	self_fixated5	other_fixated5	rewarded5	ori5	XYloc5	error5	self_fixated6	other_fixated6	rewarded6	ori6	XYloc6	error6	self_fixated7	other_fixated7	rewarded7	ori7	XYloc7	error7	E	X	T	NT0	NT1	NT2	NT3	NT4	NT5	NT6
1	8	collaborate	contingent	21.86	54.4572769076	29433.7022427	14487.6208754	30618.4221812	33741.6977064	38200.4393337	None	4458.74162733	4	4	2	141	0	1	1	92	[347, 280]	49	1	0	1	111	[974, 691]	30	1	0	1	171	[432, 689]	-30	1	0	1	80	[543, 825]	61	0	1	1	159	[839, 300]	-18	1	0	1	53	[1165, 920]	88	0	1	1	70	[1254, 384]	71	0	1	1	136	[1434, 472]	5	-30	141	171	92	111	80	159	53	70	136
2	8	collaborate	contingent	81.3	115.428391362	51294.1032658	46967.5990444	52394.9429335	55518.0773412	58040.4398909	None	2522.36254968	4	4	3	92	0	1	1	74	[1224, 325]	18	1	0	1	157	[1161, 685]	-65	0	1	1	55	[940, 305]	37	1	0	1	103	[790, 814]	-11	0	1	1	126	[1043, 419]	-34	1	0	1	168	[1180, 496]	-76	0	1	1	88	[636, 278]	4	1	0	1	42	[291, 652]	50	-11	92	103	74	157	55	126	168	88	42
3	8	collaborate	contingent	64.57	196.948599827	72785.7897928	67875.9646392	74037.6457634	77160.6540817	81219.4649116	None	4058.81082991	4	4	7	26	1	0	1	174	[607, 944]	32	0	1	1	134	[241, 239]	72	1	0	1	31	[992, 848]	-5	0	1	1	86	[977, 254]	-60	1	0	1	76	[759, 752]	-50	0	1	1	60	[393, 143]	-34	0	1	1	164	[562, 123]	42	1	0	1	42	[1384, 111]	-16	-16	26	42	174	134	31	86	76	60	164
4	8	collaborate	contingent	7.21	213.804110015	95597.8322145	92090.22213	96715.6448412	99839.2201954	103713.341143	None	3874.12094764	4	4	1	174	1	0	1	5	[1437, 766]	-11	1	0	1	34	[895, 842]	-40	0	1	1	140	[628, 528]	34	0	1	1	107	[605, 373]	67	0	1	1	90	[537, 161]	84	1	0	1	166	[630, 819]	8	1	0	1	47	[1025, 936]	-53	0	1	1	76	[1224, 296]	-82	-40	174	34	5	140	107	90	166	47	76
5	8	collaborate	contingent	8.13	251.907787115	120029.990228	114801.656903	121582.120883	124704.633641	127877.704234	None	3173.07059323	4	4	0	77	1	0	1	116	[1059, 836]	-39	0	1	1	42	[1361, 769]	35	0	1	1	27	[1366, 467]	50	1	0	1	175	[407, 774]	82	1	0	1	81	[446, 409]	-4	0	1	1	105	[1095, 303]	-28	1	0	1	57	[275, 545]	20	0	1	1	130	[549, 144]	-53	-39	77	116	42	27	175	81	105	57	130
6	8	collaborate	contingent	2.55	301.831336398	146364.424889	136828.479867	147632.911105	150756.244177	153394.810979	None	2638.56680285	3	5	0	82	1	0	1	131	[274, 934]	-49	0	1	1	174	[1270, 156]	88	0	1	1	68	[357, 128]	14	1	0	1	97	[425, 628]	-15	0	1	1	28	[597, 921]	54	1	0	1	146	[222, 429]	-64	0	1	1	121	[1074, 174]	-39	0	1	1	160	[1114, 373]	-78	-49	82	131	174	68	97	28	146	121	160
7	8	collaborate	contingent	81.3	348.239375362	168992.533965	164700.341468	170160.758545	173283.899917	175722.101061	None	2438.20114346	4	4	6	78	1	0	1	104	[634, 415]	-26	0	1	1	151	[1185, 273]	-73	1	0	1	175	[633, 711]	83	0	1	1	17	[999, 281]	61	0	1	1	118	[1062, 543]	-40	1	0	1	132	[258, 358]	-54	1	0	1	67	[1032, 836]	11	0	1	1	44	[609, 163]	34	11	78	67	104	151	175	17	118	132	44
8	8	collaborate	contingent	98.47	429.76165172	192839.62742	187812.647944	194108.741151	197231.322818	202241.16036	None	5009.83754255	4	4	4	90	0	1	1	14	[287, 429]	76	1	0	1	62	[996, 708]	28	0	1	1	30	[1057, 275]	60	0	1	1	109	[1207, 427]	-19	1	0	1	93	[1302, 890]	-3	0	1	1	72	[1331, 693]	18	1	0	1	44	[795, 767]	46	1	0	1	163	[306, 893]	-73	-3	90	93	14	62	30	109	72	44	163
9	8	collaborate	contingent	71.53	504.610653214	215183.667605	211309.121472	216268.55036	219391.559411	226288.806409	None	6897.24699823	4	4	2	169	1	0	1	166	[785, 924]	3	0	1	1	100	[1108, 312]	69	1	0	1	155	[257, 870]	14	1	0	1	3	[1162, 655]	-14	0	1	1	57	[306, 219]	-68	1	0	1	131	[432, 653]	38	0	1	1	110	[1055, 164]	59	0	1	1	79	[552, 378]	90	14	169	155	166	100	3	57	131	110	79
10	8	collaborate	contingent	78.17	588.507232484	236041.702985	231816.875973	237310.207161	240416.495432	245660.407767	None	5243.91233558	4	4	5	167	0	1	1	175	[473, 379]	-8	1	0	1	105	[223, 944]	62	1	0	1	14	[1227, 778]	-27	0	1	1	44	[1467, 396]	-57	0	1	1	134	[430, 530]	33	1	0	1	155	[1082, 858]	12	1	0	1	63	[253, 532]	-76	0	1	1	78	[1179, 190]	89	12	167	155	175	105	14	44	134	63	78
11	8	collaborate	contingent	1.29	638.38744095	254094.22547	251622.138888	257717.352547	260840.305518	263328.904686	None	2488.59916825	4	4	4	132	0	1	1	94	[1214, 114]	38	1	0	1	46	[437, 753]	86	1	0	1	142	[592, 684]	-10	0	1	1	125	[631, 214]	7	1	0	1	74	[410, 506]	58	1	0	1	28	[1019, 626]	-76	0	1	1	104	[1481, 898]	28	0	1	1	155	[956, 115]	-23	58	132	74	94	46	142	125	28	104	155
12	8	collaborate	contingent	71.53	702.911640047	279093.514751	274484.252748	280679.137548	283802.491879	288094.336165	None	4291.8442854	4	4	4	90	1	0	1	167	[924, 773]	-77	1	0	1	11	[599, 758]	79	0	1	1	142	[313, 402]	-52	1	0	1	60	[525, 621]	30	1	0	1	104	[674, 355]	-14	0	1	1	70	[952, 176]	20	0	1	1	127	[1321, 847]	-37	0	1	1	25	[1360, 122]	65	-14	90	104	167	11	142	60	70	127	25
13	8	collaborate	contingent	54.01	772.052519774	300986.917853	297028.40458	302405.43878	305528.968317	310805.844246	None	5276.87592872	4	4	5	41	0	1	1	37	[1493, 194]	4	0	1	1	92	[404, 116]	-51	1	0	1	18	[706, 804]	23	0	1	1	81	[378, 519]	-40	0	1	1	136	[482, 275]	85	1	0	1	60	[1020, 204]	-19	1	0	1	124	[844, 717]	-83	1	0	1	160	[294, 943]	61	-19	41	60	37	92	18	81	136	124	160
14	8	collaborate	contingent	61.05	847.389099044	320692.490567	318737.863341	322211.848596	325337.605591	329393.301938	None	4055.69634729	4	4	6	91	0	1	1	98	[1135, 117]	-7	0	1	1	61	[1471, 507]	30	1	0	1	169	[907, 892]	-78	1	0	1	144	[676, 828]	-53	1	0	1	122	[1264, 656]	-31	0	1	1	132	[1024, 384]	-41	1	0	1	108	[1401, 800]	-17	0	1	1	83	[564, 265]	8	-17	91	108	98	61	169	144	122	132	83
15	8	collaborate	contingent	81.3	923.80344146	341616.89298	337675.432571	343035.665719	346142.112335	349265.320417	None	3123.20808204	4	4	0	148	1	0	1	159	[179, 757]	-11	0	1	1	29	[1425, 251]	-61	0	1	1	0	[1334, 804]	-32	1	0	1	56	[650, 742]	-88	1	0	1	93	[832, 849]	55	0	1	1	113	[565, 151]	35	0	1	1	141	[1506, 875]	7	1	0	1	46	[1152, 777]	-78	-11	148	159	29	0	56	93	113	141	46
16	8	collaborate	contingent	14.4	981.00344146	362258.361306	358215.919746	363526.651424	366649.507995	369638.645242	None	2989.13724763	4	4	2	122	1	0	1	56	[260, 942]	66	0	1	1	125	[1251, 276]	-3	1	0	1	88	[981, 802]	34	1	0	1	0	[1202, 939]	-58	0	1	1	154	[1035, 642]	-32	0	1	1	67	[1271, 573]	55	0	1	1	44	[428, 308]	78	1	0	1	17	[621, 811]	-75	34	122	88	56	125	0	154	67	44	17
17	8	collaborate	contingent	81.3	1038.94133142	383417.448067	380461.457315	384684.796545	387808.039082	391131.101135	None	3323.06205287	4	4	7	91	0	1	1	12	[1290, 416]	79	1	0	1	113	[305, 891]	-22	0	1	1	59	[200, 133]	32	1	0	1	140	[399, 753]	-49	0	1	1	33	[1024, 290]	58	1	0	1	81	[706, 864]	10	0	1	1	91	[645, 525]	0	1	0	1	102	[1300, 700]	-11	-11	91	102	12	113	59	140	33	81	91
18	8	collaborate	contingent	89.62	1085.3348063	409835.288331	402604.39583	411103.631596	414226.61389	419954.728024	None	5728.11413441	4	4	1	27	0	1	1	132	[1447, 212]	75	1	0	1	35	[207, 526]	-8	0	1	1	148	[649, 359]	59	1	0	1	66	[678, 838]	-39	0	1	1	97	[1066, 251]	-70	1	0	1	14	[1181, 828]	13	0	1	1	117	[1184, 551]	90	1	0	1	4	[492, 476]	23	-8	27	35	132	148	66	97	14	117	4
19	8	collaborate	contingent	74.9	1144.71074823	434050.200094	429423.398829	435468.29107	438591.691219	440813.572722	None	2221.88150378	4	4	5	110	0	1	1	81	[1148, 851]	29	1	0	1	177	[967, 871]	-67	1	0	1	12	[784, 824]	-82	0	1	1	22	[483, 411]	88	1	0	1	135	[315, 871]	-25	1	0	1	123	[191, 639]	-13	0	1	1	42	[1155, 556]	68	0	1	1	60	[992, 244]	50	-13	110	123	81	177	12	22	135	42	60
20	8	collaborate	contingent	3.55	1195.72095669	457329.473921	452686.575359	458430.972626	461553.563823	464225.563022	None	2671.99919948	4	4	3	110	1	0	1	74	[1434, 609]	36	1	0	1	22	[1385, 913]	88	0	1	1	145	[571, 295]	-35	1	0	1	156	[532, 683]	-46	0	1	1	128	[230, 211]	-18	1	0	1	106	[352, 704]	4	0	1	1	44	[430, 155]	66	0	1	1	176	[629, 155]	-66	-46	110	156	74	22	145	128	106	44	176
21	8	collaborate	contingent	81.3	1259.95165948	479739.778508	474813.794479	481008.926693	484131.519356	486136.300858	None	2004.78150239	4	4	7	84	1	0	1	58	[1395, 799]	26	1	0	1	114	[1011, 826]	-30	0	1	1	26	[468, 373]	58	1	0	1	82	[290, 424]	2	0	1	1	124	[1126, 184]	-40	0	1	1	159	[336, 204]	-75	0	1	1	138	[1212, 722]	-54	1	0	1	95	[477, 662]	-11	-11	84	95	58	114	26	82	124	159	138
22	8	collaborate	contingent	34.58	1327.15609338	502852.133734	497858.852762	504104.488564	507227.217946	514308.086365	None	7080.86841907	4	4	0	165	1	0	1	140	[1468, 548]	25	1	0	1	25	[414, 867]	-40	0	1	1	4	[1245, 292]	-19	0	1	1	39	[1013, 356]	-54	0	1	1	114	[400, 153]	51	1	0	1	70	[1227, 758]	-85	1	0	1	101	[1507, 194]	64	0	1	1	53	[1128, 197]	-68	25	165	140	25	4	39	114	70	101	53
23	8	collaborate	contingent	1.77	1351.62179616	525313.285356	521605.5365	526899.267728	530022.34129	531675.507712	None	1653.16642121	4	4	1	89	0	1	1	7	[1469, 155]	82	1	0	1	142	[300, 644]	-53	1	0	1	157	[521, 666]	-68	0	1	1	44	[1250, 809]	45	1	0	1	86	[189, 333]	3	1	0	1	106	[624, 855]	-17	0	1	1	172	[1471, 605]	-83	0	1	1	28	[1054, 646]	61	-53	89	142	7	157	44	86	106	172	28
24	8	collaborate	contingent	100.0	1423.54773809	550462.799948	542880.727082	551831.559529	554955.171537	557878.256975	None	2923.08543806	4	4	1	162	1	0	1	90	[236, 442]	72	1	0	1	162	[185, 231]	0	1	0	1	6	[492, 504]	-24	0	1	1	36	[704, 816]	-54	1	0	1	48	[467, 728]	-66	0	1	1	67	[1325, 703]	-85	0	1	1	123	[1476, 300]	39	0	1	1	22	[1418, 570]	-40	0	162	162	90	6	36	48	67	123	22
25	8	collaborate	contingent	99.83	1478.59692407	572690.198232	568031.175982	574042.461354	577165.222258	580806.347504	None	3641.12524567	4	4	7	177	0	1	1	71	[1255, 594]	-74	0	1	1	154	[1450, 368]	23	1	0	1	164	[253, 272]	13	1	0	1	88	[1272, 897]	89	1	0	1	61	[567, 914]	-64	0	1	1	100	[1296, 325]	77	0	1	1	15	[1500, 784]	-18	1	0	1	176	[617, 268]	1	1	177	176	71	154	164	88	61	100	15
