trialnr	nstim	rewtype	rewamount	reward	total	fixonset	stimonset	maintenanceonset	probeonset	t1	rewardonset	RT	nfixself	nfixother	probedstim	response	self_fixated0	other_fixated0	rewarded0	ori0	XYloc0	error0	self_fixated1	other_fixated1	rewarded1	ori1	XYloc1	error1	self_fixated2	other_fixated2	rewarded2	ori2	XYloc2	error2	self_fixated3	other_fixated3	rewarded3	ori3	XYloc3	error3	self_fixated4	other_fixated4	rewarded4	ori4	XYloc4	error4	self_fixated5	other_fixated5	rewarded5	ori5	XYloc5	error5	self_fixated6	other_fixated6	rewarded6	ori6	XYloc6	error6	self_fixated7	other_fixated7	rewarded7	ori7	XYloc7	error7	E	X	T	NT0	NT1	NT2	NT3	NT4	NT5	NT6
1	8	collaborate	contingent	1.02	44.0372769076	18132.8081073	14161.8746568	19403.2937935	22524.6284943	24912.7134815	None	2388.08498722	4	4	6	89	0	1	1	149	[1115, 152]	-60	1	0	1	111	[318, 640]	-22	1	0	1	177	[1023, 857]	-88	0	1	1	29	[910, 233]	60	1	0	1	121	[1283, 891]	-32	0	1	1	81	[1112, 339]	8	1	0	1	18	[688, 730]	71	0	1	1	48	[409, 185]	41	71	89	18	149	111	177	29	121	81	48
2	8	collaborate	contingent	1.0	45.1164797103	37871.8572022	34498.0038281	39123.6985113	42246.8431821	48409.225129	None	6162.38194692	4	4	7	12	0	1	1	117	[866, 198]	75	1	0	1	141	[247, 648]	51	1	0	1	100	[193, 929]	-88	1	0	1	77	[611, 687]	-65	0	1	1	30	[589, 125]	-18	0	1	1	170	[1167, 937]	22	0	1	1	15	[1235, 144]	-3	1	0	1	88	[624, 487]	-76	-76	12	88	117	141	100	77	30	170	15
3	8	collaborate	contingent	2.55	54.4139127233	58045.2763741	55656.4689384	59314.2867406	62437.0348161	65860.6286439	None	3423.59382777	3	5	5	67	0	1	1	38	[570, 138]	29	0	1	1	128	[1065, 281]	-61	1	0	1	149	[624, 376]	-82	0	1	1	73	[1172, 134]	-6	0	1	1	93	[1355, 639]	-26	1	0	1	18	[306, 850]	49	1	0	1	56	[662, 706]	11	0	1	1	170	[1044, 532]	77	49	67	18	38	128	149	73	93	56	170
4	8	collaborate	contingent	1.02	97.0597924495	78702.4868211	73810.2375833	79972.1419298	83094.2786181	85599.0091715	None	2504.73055345	4	4	7	123	0	1	1	23	[549, 130]	-80	0	1	1	78	[786, 238]	45	1	0	1	144	[1366, 725]	-21	0	1	1	128	[757, 830]	-5	0	1	1	116	[1022, 916]	7	1	0	1	36	[222, 817]	87	1	0	1	168	[1419, 933]	-45	1	0	1	53	[210, 495]	70	70	123	53	23	78	144	128	116	36	168
5	8	collaborate	contingent	31.74	162.844226352	98324.8540625	94934.1875405	99593.0869995	102716.295448	105305.044458	None	2588.74900943	4	4	0	49	1	0	1	75	[1126, 481]	-26	1	0	1	37	[470, 852]	12	0	1	1	9	[216, 760]	40	1	0	1	176	[1042, 635]	53	0	1	1	20	[781, 136]	29	0	1	1	149	[378, 195]	80	1	0	1	90	[508, 687]	-41	0	1	1	122	[234, 259]	-73	-26	49	75	37	9	176	20	149	90	122
6	8	collaborate	contingent	1.92	179.674302264	117562.799508	114038.501632	118998.130284	122121.38455	125027.050585	None	2905.66603451	4	4	3	68	1	0	1	105	[398, 667]	-37	1	0	1	2	[1340, 350]	66	0	1	1	95	[269, 344]	-27	1	0	1	120	[1078, 676]	-52	0	1	1	40	[441, 366]	28	1	0	1	82	[537, 856]	-14	0	1	1	162	[502, 536]	86	0	1	1	136	[654, 218]	-68	-52	68	120	105	2	95	40	82	162	136
7	8	collaborate	contingent	68.08	258.525881535	144198.559721	134161.925606	146018.140019	149141.337105	152498.118188	None	3356.78108306	3	5	3	140	0	1	1	12	[1139, 482]	-52	1	0	1	105	[1507, 782]	35	1	0	1	84	[1303, 149]	56	1	0	1	155	[701, 791]	-15	0	1	1	74	[181, 378]	66	0	1	1	120	[884, 734]	20	0	1	1	31	[892, 310]	-71	0	1	1	44	[284, 558]	-84	-15	140	155	12	105	84	74	120	31	44
8	8	collaborate	contingent	91.95	354.415315437	166409.120665	161816.302706	167661.574828	170784.568851	174207.551658	None	3422.98280712	4	4	3	36	0	1	1	47	[1389, 697]	-11	1	0	1	142	[882, 354]	74	0	1	1	111	[1455, 423]	-75	1	0	1	29	[490, 470]	7	1	0	1	172	[1076, 738]	44	0	1	1	154	[1372, 290]	62	0	1	1	7	[1195, 460]	29	1	0	1	72	[634, 825]	-36	7	36	29	47	142	111	172	154	7	72
9	8	collaborate	contingent	74.9	441.865315437	187651.073116	183075.068671	189153.489342	192277.35243	195333.493755	None	3056.14132574	4	4	0	111	1	0	1	98	[211, 487]	13	1	0	1	21	[493, 158]	90	1	0	1	119	[458, 874]	-8	0	1	1	11	[1349, 673]	-80	1	0	1	178	[327, 640]	-67	0	1	1	77	[1425, 917]	34	0	1	1	67	[968, 824]	44	0	1	1	87	[850, 223]	24	13	111	98	21	119	11	178	77	67	87
10	8	collaborate	contingent	37.55	461.140897321	209979.022235	204485.114848	211480.808747	214587.319874	219163.17697	None	4575.85709667	4	4	6	45	1	0	1	37	[362, 550]	8	0	1	1	47	[1244, 172]	-2	0	1	1	4	[1400, 854]	41	0	1	1	154	[1453, 586]	71	0	1	1	122	[942, 244]	-77	1	0	1	166	[321, 785]	59	1	0	1	69	[522, 368]	-24	1	0	1	83	[514, 586]	-38	-24	45	69	37	47	4	154	122	166	83
11	8	collaborate	contingent	68.08	500.315083301	231821.798226	226677.809944	233240.835606	236364.767237	239754.61491	None	3389.84767369	4	4	4	110	1	0	1	132	[485, 189]	-22	0	1	1	7	[1122, 368]	-77	0	1	1	118	[1037, 145]	-8	0	1	1	70	[815, 180]	40	1	0	1	95	[522, 457]	15	1	0	1	147	[678, 796]	-37	1	0	1	164	[1039, 922]	-54	0	1	1	175	[788, 337]	-65	15	110	95	132	7	118	70	147	164	175
12	8	collaborate	contingent	40.64	521.232729843	252730.598903	248504.177079	253831.672789	256954.502603	260461.419195	None	3506.91659256	4	4	6	55	1	0	1	9	[502, 109]	46	1	0	1	155	[446, 252]	80	0	1	1	108	[884, 325]	-53	0	1	1	61	[1505, 438]	-6	1	0	1	142	[186, 643]	-87	0	1	1	170	[1469, 232]	65	1	0	1	32	[975, 827]	23	0	1	1	98	[1436, 656]	-43	23	55	32	9	155	108	61	142	170	98
13	8	collaborate	contingent	21.86	532.66286707	275408.662492	268761.03191	276509.65244	279633.725921	284225.322939	None	4591.59701813	4	4	1	138	0	1	1	91	[990, 168]	47	1	0	1	168	[1289, 857]	-30	0	1	1	144	[625, 339]	-6	1	0	1	41	[326, 786]	-83	0	1	1	24	[1255, 305]	-66	1	0	1	128	[455, 237]	10	0	1	1	80	[1440, 791]	58	1	0	1	111	[912, 729]	27	-30	138	168	91	144	41	24	128	80	111
14	8	collaborate	contingent	29.05	575.947066167	298419.931003	292257.335363	299771.925452	302895.910963	307054.19537	None	4158.28440647	4	4	3	78	1	0	1	56	[710, 801]	22	0	1	1	167	[1225, 308]	-89	0	1	1	72	[1311, 783]	6	1	0	1	105	[205, 884]	-27	1	0	1	3	[476, 617]	75	0	1	1	152	[770, 285]	-74	0	1	1	117	[325, 183]	-39	1	0	1	139	[689, 636]	-61	-27	78	105	56	167	72	3	152	117	139
15	8	collaborate	contingent	1.0	577.211122889	319044.177123	314618.454437	320796.822986	323920.026303	326959.281906	None	3039.2556031	4	4	2	120	0	1	1	7	[1387, 708]	-67	1	0	1	26	[271, 827]	-86	1	0	1	39	[320, 131]	81	0	1	1	138	[1402, 329]	-18	0	1	1	163	[608, 444]	-43	0	1	1	114	[781, 927]	6	1	0	1	72	[444, 842]	48	1	0	1	91	[1268, 585]	29	81	120	39	7	26	138	163	114	72	91
16	8	collaborate	contingent	89.62	650.780321986	342213.805548	336745.212083	343475.048951	346598.299185	350641.566559	None	4043.2673734	4	4	1	54	0	1	1	115	[507, 372]	-61	1	0	1	62	[378, 126]	-8	0	1	1	155	[838, 830]	79	0	1	1	89	[1044, 923]	-35	1	0	1	52	[651, 622]	2	1	0	1	0	[381, 679]	54	1	0	1	19	[450, 815]	35	0	1	1	129	[1236, 445]	-75	-8	54	62	115	155	89	52	0	19	129
17	8	collaborate	contingent	50.55	694.828473957	365202.951593	358371.344414	366737.580739	369860.803483	372433.45996	None	2572.65647737	4	4	1	132	1	0	1	139	[358, 798]	-7	1	0	1	152	[1223, 675]	-20	0	1	1	30	[1201, 297]	-78	1	0	1	17	[1361, 885]	-65	0	1	1	111	[915, 856]	21	0	1	1	62	[560, 700]	70	0	1	1	84	[1447, 106]	48	1	0	1	73	[1069, 481]	59	-20	132	152	139	30	17	111	62	84	73
18	8	collaborate	contingent	98.47	793.298682423	387212.178481	381700.949923	388965.201879	392088.083374	395043.997519	None	2955.91414482	4	4	5	87	0	1	1	52	[1107, 496]	35	1	0	1	19	[546, 596]	68	0	1	1	0	[1489, 266]	87	1	0	1	71	[934, 319]	16	1	0	1	34	[747, 287]	53	1	0	1	90	[322, 932]	-3	0	1	1	118	[1171, 270]	-31	0	1	1	157	[1342, 210]	-70	-3	87	90	52	19	0	71	34	118	157
19	8	collaborate	contingent	84.27	837.953507136	406283.689157	404262.087909	407868.876873	410991.878227	413597.137256	None	2605.25902951	4	4	3	103	0	1	1	37	[995, 232]	66	1	0	1	179	[227, 877]	-76	1	0	1	72	[176, 567]	31	1	0	1	113	[1027, 886]	-10	0	1	1	53	[1103, 543]	50	0	1	1	15	[1172, 296]	88	0	1	1	96	[1349, 835]	7	1	0	1	148	[627, 710]	-45	-10	103	113	37	179	72	53	15	96	148
20	8	collaborate	contingent	54.01	911.969511266	427775.628596	422748.506903	429110.810264	432234.039605	437428.348939	None	5194.30933406	4	4	0	116	1	0	1	135	[307, 438]	-19	0	1	1	157	[1435, 616]	-41	0	1	1	28	[575, 208]	88	1	0	1	71	[184, 631]	45	1	0	1	122	[496, 760]	-6	0	1	1	59	[1283, 492]	57	0	1	1	103	[1422, 344]	13	1	0	1	85	[1129, 869]	31	-19	116	135	157	28	71	122	59	103	85
21	8	collaborate	contingent	98.47	981.52562572	447080.469258	444592.40487	448332.23506	451455.501422	454929.316969	None	3473.81554727	4	4	1	55	0	1	1	23	[834, 225]	32	1	0	1	52	[367, 140]	3	0	1	1	132	[1093, 190]	-77	1	0	1	155	[287, 465]	80	0	1	1	113	[1246, 359]	-58	1	0	1	90	[1069, 742]	-35	0	1	1	73	[954, 402]	-18	1	0	1	100	[1363, 888]	-45	3	55	52	23	132	155	113	90	73	100
22	8	collaborate	contingent	1.04	1022.69593362	470410.051675	463161.648136	472329.97498	475452.814324	478893.00834	None	3440.19401647	4	4	1	87	1	0	1	0	[472, 890]	87	1	0	1	20	[225, 597]	67	0	1	1	41	[565, 424]	46	1	0	1	115	[206, 396]	-28	0	1	1	154	[1097, 230]	-67	0	1	1	66	[1174, 409]	21	0	1	1	144	[689, 682]	-57	1	0	1	77	[410, 640]	10	67	87	20	0	41	115	154	66	144	77
23	8	collaborate	contingent	9.14	1072.07751289	489664.589978	487292.947568	490916.28907	494039.437406	498065.154522	None	4025.7171154	4	4	2	94	0	1	1	148	[1417, 388]	-54	1	0	1	84	[392, 127]	10	1	0	1	132	[778, 720]	-38	1	0	1	99	[332, 848]	-5	0	1	1	31	[975, 414]	63	1	0	1	71	[274, 573]	23	0	1	1	177	[1106, 333]	-83	0	1	1	7	[1026, 575]	87	-38	94	132	148	84	99	31	71	177	7
24	8	collaborate	contingent	98.47	1157.0768553	516551.071357	507650.304117	517652.411351	520775.995868	522930.079004	None	2154.08313546	4	4	2	67	1	0	1	99	[1474, 155]	-32	0	1	1	115	[987, 609]	-48	1	0	1	70	[1267, 394]	-3	0	1	1	48	[1144, 597]	19	1	0	1	172	[240, 642]	75	1	0	1	7	[1171, 824]	60	0	1	1	20	[1280, 705]	47	0	1	1	85	[1443, 459]	-18	-3	67	70	99	115	48	172	7	20	85
25	8	collaborate	contingent	11.52	1165.6766649	535405.355576	532516.352775	536907.228957	540031.080315	545775.274153	None	5744.1938376	4	4	7	105	0	1	1	31	[1298, 248]	74	0	1	1	20	[736, 678]	85	0	1	1	156	[1070, 576]	-51	1	0	1	4	[867, 925]	-79	0	1	1	108	[1149, 411]	-3	1	0	1	95	[278, 916]	10	1	0	1	73	[264, 217]	32	1	0	1	141	[471, 584]	-36	-36	105	141	31	20	156	4	108	95	73
