trialnr	nstim	rewtype	rewamount	reward	total	fixonset	stimonset	maintenanceonset	probeonset	t1	rewardonset	RT	nfixself	nfixother	probedstim	response	self_fixated0	other_fixated0	rewarded0	ori0	XYloc0	error0	self_fixated1	other_fixated1	rewarded1	ori1	XYloc1	error1	self_fixated2	other_fixated2	rewarded2	ori2	XYloc2	error2	self_fixated3	other_fixated3	rewarded3	ori3	XYloc3	error3	self_fixated4	other_fixated4	rewarded4	ori4	XYloc4	error4	self_fixated5	other_fixated5	rewarded5	ori5	XYloc5	error5	self_fixated6	other_fixated6	rewarded6	ori6	XYloc6	error6	self_fixated7	other_fixated7	rewarded7	ori7	XYloc7	error7	E	X	T	NT0	NT1	NT2	NT3	NT4	NT5	NT6
1	8	collaborate	contingent	100.0	98.6485492831	17216.4210506	14210.8236733	18467.7480957	21591.1902243	26768.0396387	None	5176.84941438	4	4	7	77	0	1	1	50	[1299, 270]	27	1	0	1	128	[418, 364]	-51	0	1	1	168	[901, 261]	89	0	1	1	27	[1446, 327]	50	1	0	1	62	[819, 792]	15	0	1	1	6	[1067, 306]	71	1	0	1	151	[621, 786]	-74	1	0	1	77	[477, 876]	0	0	77	77	50	128	168	27	62	6	151
2	8	collaborate	contingent	54.01	126.157351862	37489.6827334	33898.3297669	38758.3682093	41897.8543692	46155.7625753	None	4257.90820609	4	4	4	22	1	0	1	28	[540, 453]	-6	1	0	1	58	[357, 563]	-36	0	1	1	171	[797, 364]	31	0	1	1	126	[931, 911]	76	1	0	1	3	[370, 364]	19	0	1	1	43	[669, 643]	-21	0	1	1	152	[1455, 209]	50	1	0	1	90	[594, 923]	-68	19	22	3	28	58	171	126	43	152	90
3	8	collaborate	contingent	84.27	168.912321249	57311.4793336	54321.7346555	59665.7363973	62806.0883162	67648.1430166	None	4842.05470043	4	4	5	96	0	1	1	39	[1436, 372]	57	1	0	1	60	[646, 220]	36	1	0	1	110	[1482, 627]	-14	0	1	1	178	[474, 247]	-82	0	1	1	121	[1017, 228]	-25	1	0	1	86	[985, 649]	10	0	1	1	27	[1483, 145]	69	1	0	1	134	[671, 596]	-38	10	96	86	39	60	110	178	121	27	134
4	8	collaborate	contingent	10.27	194.368435703	78270.3019014	75613.5995267	80038.6453988	83161.8459799	87153.191689	None	3991.34570907	4	4	3	117	1	0	1	89	[399, 594]	28	0	1	1	179	[960, 212]	-62	0	1	1	41	[499, 338]	76	1	0	1	154	[1381, 938]	-37	1	0	1	52	[592, 729]	65	1	0	1	112	[1009, 808]	5	0	1	1	13	[640, 267]	-76	0	1	1	79	[1012, 361]	38	-37	117	154	89	179	41	52	112	13	79
5	8	collaborate	contingent	98.47	293.517869605	100463.134135	96689.0308851	101731.291432	104855.292529	108879.195101	None	4023.90257169	4	4	4	25	1	0	1	142	[754, 732]	63	0	1	1	89	[1199, 906]	-64	0	1	1	44	[1078, 602]	-19	1	0	1	178	[967, 708]	27	1	0	1	22	[453, 783]	3	1	0	1	56	[193, 110]	-31	0	1	1	69	[1203, 349]	-44	0	1	1	119	[1365, 461]	86	3	25	22	142	89	44	178	56	69	119
6	8	collaborate	contingent	95.81	391.337303507	121955.089761	118965.900386	123223.61726	126346.577027	130638.539763	None	4291.96273644	4	4	1	74	0	1	1	135	[1330, 322]	-61	1	0	1	79	[376, 866]	-5	0	1	1	150	[1379, 871]	-76	0	1	1	108	[1239, 454]	-34	1	0	1	89	[412, 483]	-15	0	1	1	14	[1370, 613]	60	1	0	1	176	[444, 202]	78	1	0	1	24	[942, 867]	50	-5	74	79	135	150	108	89	14	176	24
7	8	collaborate	contingent	64.57	424.122344102	144382.530949	140658.201142	146151.990183	149275.431945	153366.494981	None	4091.0630362	4	4	1	148	0	1	1	63	[290, 324]	85	1	0	1	132	[748, 836]	16	1	0	1	145	[230, 884]	3	1	0	1	20	[572, 509]	-52	0	1	1	77	[485, 171]	71	0	1	1	46	[1119, 281]	-78	1	0	1	173	[566, 775]	-25	0	1	1	160	[1401, 938]	-12	16	148	132	63	145	20	77	46	173	160
8	8	collaborate	contingent	84.27	498.544620459	165726.074886	162100.072501	166992.790229	170115.912738	173790.343745	None	3674.43100722	4	4	7	67	0	1	1	43	[1409, 593]	24	0	1	1	67	[938, 349]	0	0	1	1	77	[1180, 805]	-10	1	0	1	29	[670, 296]	38	1	0	1	130	[809, 712]	-63	1	0	1	119	[994, 765]	-52	0	1	1	163	[1182, 511]	84	1	0	1	57	[276, 458]	10	10	67	57	43	67	77	29	130	119	163
9	8	collaborate	contingent	1.13	546.120624589	185814.162747	183225.06068	187082.220712	190206.101585	194096.446723	None	3890.345138	4	4	1	55	0	1	1	107	[907, 169]	-52	1	0	1	117	[319, 837]	-62	0	1	1	63	[1500, 549]	-8	1	0	1	14	[307, 354]	41	0	1	1	96	[636, 136]	-41	1	0	1	179	[711, 637]	56	1	0	1	32	[221, 595]	23	0	1	1	151	[1367, 407]	84	-62	55	117	107	63	14	96	179	32	151
10	8	collaborate	contingent	47.16	570.320593976	206806.017208	202095.317424	208073.477719	211196.834079	215037.777441	None	3840.94336206	4	4	5	115	0	1	1	150	[1322, 764]	-35	0	1	1	93	[1014, 124]	22	1	0	1	108	[502, 747]	7	1	0	1	4	[274, 303]	-69	1	0	1	74	[171, 552]	41	1	0	1	136	[700, 814]	-21	0	1	1	15	[664, 649]	-80	0	1	1	30	[1492, 929]	85	-21	115	136	150	93	108	4	74	15	30
11	8	collaborate	contingent	74.9	608.58945178	226109.915836	223437.169797	227294.53179	230418.312232	233724.938623	None	3306.62639165	4	4	5	43	0	1	1	96	[676, 302]	-53	1	0	1	70	[280, 686]	-27	1	0	1	135	[1230, 510]	88	0	1	1	17	[1422, 693]	26	0	1	1	115	[1286, 107]	-72	1	0	1	30	[441, 490]	13	1	0	1	54	[1205, 928]	-11	0	1	1	2	[1496, 289]	41	13	43	30	96	70	135	17	115	54	2
12	8	collaborate	contingent	81.3	691.375331507	246366.68558	242641.638828	247467.488221	250591.367261	254531.744251	None	3940.37699002	4	4	1	52	0	1	1	46	[1499, 299]	6	1	0	1	63	[502, 180]	-11	0	1	1	150	[973, 904]	82	1	0	1	36	[689, 679]	16	0	1	1	102	[1496, 117]	-50	1	0	1	3	[468, 613]	49	0	1	1	120	[1261, 532]	-68	1	0	1	172	[530, 832]	60	-11	52	63	46	150	36	102	3	120	172
13	8	collaborate	contingent	78.17	779.695539972	265237.556639	262547.569094	266588.365328	269712.00502	272099.590506	None	2387.58548545	4	4	5	50	1	0	1	102	[530, 806]	-52	0	1	1	14	[531, 204]	36	1	0	1	164	[190, 809]	66	0	1	1	40	[1493, 942]	10	0	1	1	142	[1386, 215]	88	1	0	1	62	[346, 881]	-12	0	1	1	125	[539, 510]	-75	1	0	1	112	[261, 651]	-62	-12	50	62	102	14	164	40	142	125	112
14	8	collaborate	contingent	97.3	828.858641171	284123.622098	281752.576934	285392.323701	288516.155092	290619.240155	None	2103.08506357	4	4	7	45	0	1	1	92	[986, 708]	-47	1	0	1	13	[586, 564]	32	0	1	1	34	[736, 388]	11	1	0	1	24	[405, 646]	21	0	1	1	133	[787, 689]	-88	0	1	1	69	[1279, 538]	-24	1	0	1	79	[432, 898]	-34	1	0	1	49	[280, 778]	-4	-4	45	49	92	13	34	24	133	69	79
15	8	collaborate	contingent	26.5	889.119645301	303311.22789	299738.255624	304579.885875	307702.915284	310458.181129	None	2755.26584519	4	4	5	110	1	0	1	98	[313, 223]	12	0	1	1	14	[1317, 773]	-84	0	1	1	109	[1450, 316]	1	0	1	1	30	[685, 350]	80	1	0	1	122	[649, 616]	-12	1	0	1	138	[513, 693]	-28	1	0	1	55	[572, 112]	55	0	1	1	68	[1194, 463]	42	-28	110	138	98	14	109	30	122	55	68
16	8	collaborate	contingent	1.29	935.741230526	321797.536655	319576.561024	323316.438205	326440.504545	329195.624875	None	2755.12033024	4	4	6	51	0	1	1	67	[1260, 253]	-16	1	0	1	27	[317, 198]	24	0	1	1	90	[1048, 319]	-39	1	0	1	7	[401, 351]	44	0	1	1	100	[1077, 821]	-49	0	1	1	119	[1188, 684]	-68	1	0	1	173	[1017, 647]	58	1	0	1	153	[198, 568]	78	58	51	173	67	27	90	7	100	119	153
17	8	collaborate	contingent	87.05	979.766812411	340901.876373	338346.20096	342171.75016	345293.592357	348833.725527	None	3540.13317	4	4	3	38	1	0	1	126	[403, 754]	-88	1	0	1	53	[846, 779]	-15	0	1	1	170	[1346, 444]	48	1	0	1	29	[654, 115]	9	1	0	1	1	[777, 364]	37	0	1	1	155	[1349, 119]	63	0	1	1	86	[1158, 497]	-48	0	1	1	107	[1297, 683]	-69	9	38	29	126	53	170	1	155	86	107
18	8	collaborate	contingent	94.02	1067.42712031	359488.755763	357734.368505	361342.201682	364464.382925	366702.777833	None	2238.39490778	4	4	3	67	0	1	1	46	[776, 243]	21	0	1	1	14	[991, 161]	53	1	0	1	145	[509, 826]	-78	1	0	1	73	[192, 389]	-6	1	0	1	103	[323, 793]	-36	1	0	1	123	[278, 238]	-56	0	1	1	159	[1302, 287]	88	0	1	1	30	[1057, 395]	37	-6	67	73	46	14	145	103	123	159	30
19	8	collaborate	contingent	91.95	1161.30675842	378725.955029	376338.036362	381414.423281	384553.782619	387810.006224	None	3256.2236048	4	4	4	122	0	1	1	23	[1143, 621]	-81	1	0	1	90	[374, 866]	32	1	0	1	127	[805, 788]	-5	0	1	1	54	[940, 138]	68	1	0	1	115	[945, 391]	7	1	0	1	78	[316, 143]	44	0	1	1	8	[1100, 460]	-66	0	1	1	164	[1160, 134]	-42	7	122	115	23	90	127	54	78	8	164
20	8	collaborate	contingent	68.08	1196.3068968	399934.249234	396510.43969	401120.129739	404242.415446	406914.719809	None	2672.30436303	4	4	0	36	1	0	1	51	[589, 455]	-15	0	1	1	133	[1038, 500]	83	1	0	1	34	[852, 777]	2	1	0	1	172	[562, 758]	44	0	1	1	113	[702, 263]	-77	0	1	1	161	[1490, 329]	55	1	0	1	63	[1023, 708]	-27	0	1	1	74	[1353, 487]	-38	-15	36	51	133	34	172	113	161	63	74
21	8	collaborate	contingent	71.53	1279.08290093	420708.7795	416265.992166	421977.063252	425100.789446	429126.075693	None	4025.2862466	4	4	4	18	0	1	1	37	[828, 699]	-19	0	1	1	79	[1499, 188]	-61	1	0	1	110	[181, 851]	88	0	1	1	126	[644, 609]	72	1	0	1	4	[254, 393]	14	1	0	1	141	[357, 198]	57	1	0	1	158	[597, 838]	40	0	1	1	51	[520, 226]	-33	14	18	4	37	79	110	126	141	158	51
22	8	collaborate	contingent	97.3	1349.65884285	439830.722128	437108.260191	441099.422998	444221.31761	448679.664414	None	4458.34680355	4	4	7	108	0	1	1	34	[1335, 320]	74	0	1	1	80	[1198, 721]	28	0	1	1	165	[754, 175]	-57	1	0	1	64	[386, 597]	44	0	1	1	52	[1334, 945]	56	1	0	1	22	[558, 566]	86	1	0	1	11	[664, 783]	-83	1	0	1	112	[1082, 909]	-4	-4	108	112	34	80	165	64	52	22	11
23	8	collaborate	contingent	99.83	1403.63642206	458816.766988	456044.299223	460402.363867	463525.702998	466715.131942	None	3189.42894362	4	4	1	114	0	1	1	139	[1478, 748]	-25	1	0	1	115	[763, 859]	-1	0	1	1	82	[611, 140]	32	0	1	1	97	[1230, 903]	17	1	0	1	160	[550, 826]	-46	1	0	1	35	[211, 481]	79	0	1	1	71	[993, 650]	43	1	0	1	57	[629, 403]	57	-1	114	115	139	82	97	160	35	71	57
24	8	collaborate	contingent	3.17	1450.03300133	478104.420722	475465.535315	479790.406056	482913.718065	486286.795306	None	3373.07724168	3	5	0	65	1	0	1	18	[494, 902]	47	1	0	1	111	[675, 672]	-46	0	1	1	50	[810, 313]	15	0	1	1	147	[1504, 531]	-82	0	1	1	128	[843, 898]	-63	1	0	1	174	[445, 586]	71	0	1	1	83	[284, 162]	-18	0	1	1	163	[1231, 935]	82	47	65	18	111	50	147	128	174	83	163
25	8	collaborate	contingent	3.55	1473.73394326	498161.6957	495053.938397	499428.995668	502552.244632	505057.147423	None	2504.90279088	4	4	0	47	1	0	1	93	[590, 855]	-46	0	1	1	145	[1417, 482]	82	0	1	1	110	[1167, 492]	-63	1	0	1	3	[561, 113]	44	1	0	1	66	[1170, 757]	-19	0	1	1	42	[860, 264]	5	1	0	1	78	[1015, 817]	-31	0	1	1	129	[1235, 116]	-82	-46	47	93	145	110	3	66	42	78	129
