trialnr	nstim	rewtype	rewamount	reward	total	fixonset	stimonset	maintenanceonset	probeonset	t1	rewardonset	RT	nfixself	nfixother	probedstim	response	self_fixated0	other_fixated0	rewarded0	ori0	XYloc0	error0	self_fixated1	other_fixated1	rewarded1	ori1	XYloc1	error1	self_fixated2	other_fixated2	rewarded2	ori2	XYloc2	error2	self_fixated3	other_fixated3	rewarded3	ori3	XYloc3	error3	self_fixated4	other_fixated4	rewarded4	ori4	XYloc4	error4	self_fixated5	other_fixated5	rewarded5	ori5	XYloc5	error5	self_fixated6	other_fixated6	rewarded6	ori6	XYloc6	error6	self_fixated7	other_fixated7	rewarded7	ori7	XYloc7	error7	E	X	T	NT0	NT1	NT2	NT3	NT4	NT5	NT6
1	8	collaborate	contingent	1.64	50.82	24172.1559185	14418.6581905	25457.7675751	28564.2764227	35595.2037023	None	7030.92727959	4	4	0	143	1	0	1	17	[1337, 873]	-54	0	1	1	143	[237, 410]	0	0	1	1	2	[922, 944]	-39	1	0	1	126	[480, 466]	17	0	1	1	113	[304, 786]	30	1	0	1	29	[1110, 899]	-66	1	0	1	79	[1509, 460]	64	0	1	1	47	[541, 905]	-84	-54	143	17	143	2	126	113	29	79	47
2	8	collaborate	contingent	2.31	98.9860041299	46418.1780329	42208.6017115	48704.8962511	51811.5502456	58859.2621481	None	7047.71190252	4	4	2	86	0	1	1	66	[1347, 108]	20	1	0	1	48	[220, 252]	38	1	0	1	36	[1172, 531]	50	0	1	1	78	[872, 295]	8	1	0	1	132	[500, 886]	-46	0	1	1	146	[1412, 459]	-60	0	1	1	120	[1403, 279]	-34	1	0	1	13	[1242, 732]	73	50	86	36	66	48	78	132	146	120	13
3	8	collaborate	contingent	1.0	109.373165197	70316.3750962	65189.5229616	71885.8353881	75009.9495248	82073.2848753	None	7063.33535048	4	4	4	111	0	1	1	30	[946, 305]	81	1	0	1	169	[654, 163]	-58	1	0	1	110	[358, 751]	1	0	1	1	157	[1277, 160]	-46	1	0	1	17	[488, 320]	-86	0	1	1	90	[652, 388]	21	0	1	1	130	[1155, 766]	-19	1	0	1	51	[708, 838]	60	-86	111	17	30	169	110	157	90	130	51
4	8	collaborate	contingent	1.64	110.6934951	93713.8806959	88386.5957597	94899.4656323	98005.5361069	105020.113471	None	7014.5773642	4	4	5	90	0	1	1	154	[843, 878]	-64	0	1	1	98	[1249, 681]	-8	1	0	1	30	[417, 843]	60	0	1	1	118	[1059, 500]	-28	0	1	1	81	[1430, 917]	9	1	0	1	144	[486, 234]	-54	1	0	1	3	[839, 695]	87	1	0	1	59	[677, 445]	31	-54	90	144	154	98	30	118	81	3	59
5	8	collaborate	contingent	1.29	147.102837516	118213.580689	112185.155727	120367.261903	123474.078638	130488.044993	None	7013.96635452	4	4	4	0	1	0	1	2	[1430, 403]	-2	0	1	1	135	[233, 725]	45	1	0	1	101	[935, 116]	79	0	1	1	15	[196, 305]	-15	1	0	1	58	[1396, 561]	-58	0	1	1	149	[944, 292]	31	1	0	1	79	[1458, 713]	-79	0	1	1	166	[521, 920]	14	-58	0	58	2	135	101	15	149	79	166
6	8	collaborate	contingent	78.17	236.102271418	143782.420075	139072.2168	145185.92178	148292.008015	155355.312211	None	7063.30419522	4	4	3	2	1	0	1	137	[1198, 261]	45	0	1	1	36	[1414, 615]	-34	1	0	1	122	[344, 200]	60	1	0	1	170	[571, 923]	12	0	1	1	63	[516, 605]	-61	0	1	1	2	[1194, 562]	0	0	1	1	105	[1348, 360]	77	1	0	1	89	[518, 315]	-87	12	2	170	137	36	122	63	2	105	89
7	8	collaborate	contingent	64.57	274.145310382	166094.381753	161818.398172	167179.158522	170285.808851	177300.039842	None	7014.23099098	4	4	7	87	1	0	1	112	[896, 327]	-25	0	1	1	132	[1033, 410]	-45	1	0	1	54	[507, 178]	33	1	0	1	160	[692, 130]	-73	0	1	1	83	[1389, 903]	4	0	1	1	102	[1352, 649]	-15	0	1	1	11	[587, 886]	76	1	0	1	71	[257, 557]	16	16	87	71	112	132	54	160	83	102	11
8	8	collaborate	contingent	17.84	320.516030136	186703.663969	183145.235939	187954.691818	191061.42315	198142.323472	None	7080.90032112	4	4	1	8	0	1	1	108	[598, 534]	80	1	0	1	40	[714, 167]	-32	1	0	1	20	[950, 832]	-12	0	1	1	160	[573, 823]	28	1	0	1	73	[1035, 517]	-65	1	0	1	10	[1424, 226]	-2	0	1	1	54	[643, 324]	-46	0	1	1	91	[271, 860]	-83	-32	8	40	108	20	160	73	10	54	91
9	8	collaborate	contingent	1.08	330.943191203	209098.433037	203470.102493	210501.037104	213624.067037	220721.83885	None	7097.77181226	4	4	2	130	0	1	1	76	[1262, 707]	54	1	0	1	91	[201, 211]	39	1	0	1	66	[436, 808]	64	0	1	1	168	[579, 533]	-38	1	0	1	125	[239, 667]	5	1	0	1	24	[1020, 919]	-74	0	1	1	107	[1317, 468]	23	0	1	1	139	[1505, 379]	-9	64	130	66	76	91	168	125	24	107	139
10	8	collaborate	contingent	8.13	382.019195333	236187.359687	226099.227313	237572.765315	240696.587692	247777.828156	None	7081.24046328	4	4	6	173	0	1	1	18	[1207, 123]	-25	1	0	1	167	[362, 153]	6	1	0	1	104	[392, 330]	69	0	1	1	32	[600, 816]	-39	1	0	1	177	[610, 154]	-4	0	1	1	94	[1463, 570]	79	1	0	1	134	[751, 312]	39	0	1	1	117	[886, 945]	56	39	173	134	18	167	104	32	177	94	117
11	8	collaborate	contingent	87.05	475.458629235	257663.622859	252887.882472	260235.166155	263341.767368	270422.82933	None	7081.06196196	4	4	3	62	0	1	1	63	[1457, 218]	-1	1	0	1	138	[216, 138]	-76	0	1	1	42	[1345, 388]	20	1	0	1	53	[544, 117]	9	0	1	1	100	[670, 740]	-38	1	0	1	27	[1218, 577]	35	1	0	1	117	[363, 878]	-55	0	1	1	8	[1083, 761]	54	9	62	53	63	138	42	100	27	117	8
12	8	collaborate	contingent	1.64	521.090208506	279775.542459	276268.816771	281544.976654	284651.617453	291665.966467	None	7014.34901445	4	4	5	54	0	1	1	53	[792, 843]	1	1	0	1	19	[1192, 424]	35	0	1	1	159	[1262, 827]	75	1	0	1	39	[590, 289]	15	0	1	1	99	[466, 648]	-45	1	0	1	0	[1039, 588]	54	1	0	1	169	[369, 286]	65	0	1	1	67	[1326, 185]	-13	54	54	0	53	19	159	39	99	169	67
13	8	collaborate	contingent	1.04	567.586793731	302888.91756	297411.404146	303990.821293	307114.251847	314128.434455	None	7014.18260869	4	4	1	102	1	0	1	114	[789, 129]	-12	1	0	1	169	[1393, 507]	-67	0	1	1	155	[238, 680]	-53	0	1	1	33	[712, 794]	69	0	1	1	13	[968, 705]	89	0	1	1	124	[1499, 750]	-22	1	0	1	145	[1125, 499]	-43	1	0	1	134	[1296, 276]	-32	-67	102	169	114	155	33	13	124	145	134
14	8	collaborate	contingent	3.98	616.587797861	322980.12111	319405.796198	324148.75795	327254.925922	334336.01794	None	7081.09201762	4	4	6	3	0	1	1	83	[1174, 575]	-80	1	0	1	160	[527, 851]	23	0	1	1	49	[1032, 764]	-46	1	0	1	175	[343, 759]	8	0	1	1	67	[824, 888]	-64	0	1	1	150	[1403, 430]	33	1	0	1	138	[286, 209]	45	1	0	1	28	[370, 942]	-25	45	3	138	83	160	49	175	67	150	28
15	8	collaborate	contingent	1.01	637.413912315	343839.090032	339513.305313	346076.397836	349183.858568	356231.724048	None	7047.86547964	4	4	0	19	1	0	1	124	[261, 482]	75	1	0	1	135	[719, 386]	64	0	1	1	10	[1258, 479]	9	1	0	1	44	[551, 276]	-25	0	1	1	26	[1277, 194]	-7	0	1	1	75	[203, 843]	-56	1	0	1	166	[468, 657]	33	0	1	1	113	[405, 855]	86	75	19	124	135	10	44	26	75	166	113
16	8	collaborate	contingent	2.31	677.652913808	366302.37722	362710.260454	367720.437229	370827.043208	377841.170837	None	7014.12762882	4	4	0	174	1	0	1	44	[695, 141]	-50	0	1	1	165	[1460, 873]	9	1	0	1	81	[1213, 225]	-87	1	0	1	67	[235, 611]	-73	0	1	1	136	[594, 500]	38	0	1	1	33	[1136, 883]	-39	1	0	1	101	[172, 868]	73	0	1	1	178	[760, 916]	-4	-50	174	44	165	81	67	136	33	101	178
17	8	collaborate	contingent	2.1	710.990190166	388229.489666	385089.228673	389581.468263	392704.848235	399752.578098	None	7047.72986261	4	4	1	164	0	1	1	20	[1360, 248]	-36	1	0	1	113	[329, 233]	51	0	1	1	101	[1129, 745]	63	0	1	1	56	[688, 664]	-72	1	0	1	7	[881, 925]	-23	1	0	1	73	[256, 718]	-89	1	0	1	156	[732, 185]	8	0	1	1	89	[975, 714]	75	51	164	113	20	101	56	7	73	156	89
18	8	collaborate	contingent	40.64	773.446069892	410191.566747	406165.542939	411375.697282	414482.356042	421580.938624	None	7098.58258216	4	4	4	62	0	1	1	110	[1231, 116]	-48	1	0	1	26	[951, 830]	36	1	0	1	132	[1216, 919]	-70	1	0	1	58	[172, 318]	4	1	0	1	39	[195, 635]	23	0	1	1	16	[1363, 378]	46	0	1	1	80	[1238, 478]	-18	0	1	1	177	[1480, 859]	65	23	62	39	110	26	132	58	16	80	177
19	8	collaborate	contingent	78.17	849.981789646	429262.602945	427208.263769	430532.059315	433637.960085	440652.820779	None	7014.86069382	4	4	0	60	1	0	1	48	[508, 785]	12	1	0	1	28	[361, 415]	32	1	0	1	112	[335, 570]	-52	0	1	1	158	[1293, 529]	82	0	1	1	16	[1440, 491]	44	0	1	1	89	[1475, 641]	-29	1	0	1	5	[836, 911]	55	0	1	1	130	[1051, 840]	-70	12	60	48	28	112	158	16	89	5	130
20	8	collaborate	contingent	68.08	933.936223548	448051.920429	446181.027838	449621.05414	452726.809397	459824.508269	None	7097.69887229	4	4	2	89	1	0	1	84	[1002, 218]	5	0	1	1	47	[1037, 811]	42	1	0	1	74	[1409, 604]	15	0	1	1	58	[389, 914]	31	0	1	1	172	[244, 560]	-83	1	0	1	16	[1269, 544]	73	1	0	1	115	[590, 140]	-26	0	1	1	130	[592, 683]	-41	15	89	74	84	47	58	172	16	115	130
21	8	collaborate	contingent	95.81	982.341470667	470429.951423	467306.511706	472266.441274	475372.884145	482437.2095	None	7064.32535478	3	5	2	61	0	1	1	46	[677, 610]	15	1	0	1	119	[278, 364]	-58	1	0	1	66	[834, 346]	-5	1	0	1	136	[310, 843]	-75	0	1	1	77	[1465, 569]	-16	0	1	1	6	[1014, 385]	55	0	1	1	159	[1275, 566]	82	0	1	1	173	[1072, 223]	68	-5	61	66	46	119	136	77	6	159	173
22	8	collaborate	contingent	29.05	1006.75363173	492708.646245	489017.071251	493810.579667	496916.964994	503947.643398	None	7030.67840401	4	4	3	106	1	0	1	115	[489, 707]	-9	0	1	1	145	[1420, 819]	-39	0	1	1	47	[1187, 632]	59	1	0	1	79	[749, 366]	27	0	1	1	12	[1012, 885]	-86	1	0	1	57	[247, 587]	49	1	0	1	159	[1111, 140]	-53	0	1	1	1	[1505, 664]	-75	27	106	79	115	145	47	12	57	159	1
23	8	collaborate	contingent	68.08	1074.83230884	512665.928715	511061.901109	514669.077229	517775.690172	524873.713059	None	7098.02288702	4	4	4	32	0	1	1	142	[773, 873]	70	1	0	1	29	[330, 163]	3	0	1	1	121	[1168, 704]	-89	1	0	1	11	[277, 462]	21	1	0	1	47	[465, 629]	-15	0	1	1	62	[662, 623]	-30	1	0	1	170	[562, 293]	42	0	1	1	97	[1313, 505]	-65	-15	32	47	142	29	121	11	62	170	97
24	8	collaborate	contingent	64.57	1151.92888811	532956.894678	530200.971971	534225.512788	537332.229826	544413.399549	None	7081.16972251	4	4	2	90	1	0	1	117	[1428, 183]	-27	1	0	1	58	[791, 197]	32	1	0	1	74	[609, 689]	16	0	1	1	148	[928, 768]	-58	0	1	1	166	[1030, 418]	-76	0	1	1	40	[1376, 653]	50	0	1	1	3	[1467, 518]	87	1	0	1	103	[438, 108]	-13	16	90	74	117	58	148	166	40	3	103
25	8	collaborate	contingent	99.83	1242.494196	553214.926963	549607.060662	554483.401392	557590.892547	564654.74984	None	7063.85729277	4	4	0	106	1	0	1	105	[812, 827]	1	1	0	1	21	[1074, 142]	85	0	1	1	148	[360, 392]	-42	0	1	1	158	[390, 640]	-52	0	1	1	3	[1064, 623]	-77	0	1	1	116	[1292, 515]	-10	1	0	1	58	[1435, 737]	48	1	0	1	33	[1395, 186]	73	1	106	105	21	148	158	3	116	58	33
