trialnr	nstim	rewtype	rewamount	reward	total	fixonset	stimonset	maintenanceonset	probeonset	t1	rewardonset	RT	nfixself	nfixother	probedstim	response	self_fixated0	other_fixated0	rewarded0	ori0	XYloc0	error0	self_fixated1	other_fixated1	rewarded1	ori1	XYloc1	error1	self_fixated2	other_fixated2	rewarded2	ori2	XYloc2	error2	self_fixated3	other_fixated3	rewarded3	ori3	XYloc3	error3	self_fixated4	other_fixated4	rewarded4	ori4	XYloc4	error4	self_fixated5	other_fixated5	rewarded5	ori5	XYloc5	error5	self_fixated6	other_fixated6	rewarded6	ori6	XYloc6	error6	self_fixated7	other_fixated7	rewarded7	ori7	XYloc7	error7	E	X	T	NT0	NT1	NT2	NT3	NT4	NT5	NT6
1	8	collaborate	contingent	95.81	95.8096381139	17326.331215	14051.7872079	18677.4760265	21800.5118352	27228.1830438	None	5427.67120857	4	4	3	56	0	1	1	85	[405, 150]	-29	0	1	1	25	[219, 185]	31	1	0	1	165	[759, 348]	71	1	0	1	61	[1041, 911]	-5	0	1	1	122	[1313, 786]	-66	1	0	1	104	[1048, 340]	-48	1	0	1	50	[671, 526]	6	0	1	1	175	[357, 363]	61	-5	56	61	85	25	165	122	104	50	175
2	8	collaborate	contingent	94.02	144.403112998	37265.001895	34409.2397906	39268.0610302	42391.2647138	46599.8965627	None	4208.63184888	4	4	1	103	0	1	1	51	[1139, 314]	52	1	0	1	97	[277, 710]	6	0	1	1	110	[1369, 229]	-7	1	0	1	64	[1158, 897]	39	1	0	1	3	[481, 315]	-80	1	0	1	142	[890, 231]	-39	0	1	1	28	[1251, 553]	75	0	1	1	161	[1493, 904]	-58	6	103	97	51	110	64	3	142	28	161
3	8	collaborate	contingent	99.83	194.91575954	59425.7923292	54916.5932978	60526.84349	63650.5240409	68442.7850813	None	4792.26104034	4	4	6	107	1	0	1	25	[640, 696]	82	0	1	1	153	[451, 139]	-46	1	0	1	95	[675, 368]	12	0	1	1	132	[1490, 421]	-25	0	1	1	174	[1506, 144]	-67	0	1	1	36	[1467, 700]	71	1	0	1	106	[363, 617]	1	1	0	1	53	[374, 920]	54	1	107	106	25	153	95	132	174	36	53
4	8	collaborate	contingent	99.32	254.462920608	79565.2784121	75673.6860124	80816.939384	83940.1170433	88732.9729765	None	4792.85593328	4	4	2	93	0	1	1	77	[295, 234]	16	1	0	1	12	[582, 575]	81	1	0	1	95	[323, 938]	-2	0	1	1	119	[1444, 215]	-26	0	1	1	42	[1003, 193]	51	1	0	1	172	[520, 889]	-79	1	0	1	2	[531, 317]	-89	0	1	1	136	[1062, 712]	-43	-2	93	95	77	12	119	42	172	2	136
5	8	collaborate	contingent	19.77	265.027141787	99705.369651	95913.6734474	100806.421911	103930.229651	110342.146643	None	6411.91699209	4	4	6	135	0	1	1	14	[261, 172]	-59	1	0	1	106	[552, 686]	29	1	0	1	149	[621, 836]	-14	1	0	1	54	[168, 458]	81	0	1	1	33	[1050, 575]	-78	0	1	1	75	[1338, 360]	60	1	0	1	166	[354, 598]	-31	0	1	1	88	[1317, 130]	47	-31	135	166	14	106	149	54	33	75	88
6	8	collaborate	contingent	99.83	320.700180751	118158.06485	115518.892891	119426.434139	122549.630858	128010.396515	None	5460.76565617	4	4	5	88	0	1	1	71	[1110, 874]	17	1	0	1	52	[361, 737]	36	0	1	1	13	[1032, 525]	75	0	1	1	171	[1181, 623]	-83	0	1	1	32	[1359, 866]	56	1	0	1	87	[694, 852]	1	1	0	1	102	[731, 680]	-14	1	0	1	136	[964, 770]	-48	1	88	87	71	52	13	171	32	102	136
7	8	collaborate	contingent	74.9	363.908219715	145779.273094	134523.308954	147198.870913	150321.171811	156099.363248	None	5778.1914375	4	4	2	57	0	1	1	9	[1226, 322]	48	1	0	1	106	[612, 633]	-49	1	0	1	70	[316, 886]	-13	1	0	1	40	[555, 123]	17	1	0	1	143	[1062, 569]	-86	0	1	1	132	[1000, 164]	-75	0	1	1	172	[951, 361]	65	0	1	1	28	[1441, 647]	29	-13	57	70	9	106	40	143	132	172	28
8	8	collaborate	contingent	40.64	384.875106005	165050.708483	162261.854057	166319.433316	169442.278524	176355.894058	None	6913.61553422	4	4	6	75	0	1	1	160	[1114, 255]	-85	0	1	1	106	[1321, 838]	-31	1	0	1	26	[1074, 538]	49	1	0	1	89	[453, 839]	-14	1	0	1	36	[642, 399]	39	0	1	1	147	[1269, 175]	-72	1	0	1	52	[771, 902]	23	0	1	1	176	[1440, 494]	79	23	75	52	160	106	26	89	36	147	176
9	8	collaborate	contingent	74.9	424.314713206	184322.857158	181265.646637	185824.276763	188947.851385	194074.323497	None	5126.47211261	4	4	5	112	0	1	1	158	[1346, 933]	-46	0	1	1	126	[1169, 658]	-14	1	0	1	74	[915, 343]	38	1	0	1	11	[619, 320]	-79	1	0	1	34	[184, 677]	78	1	0	1	99	[694, 679]	13	0	1	1	56	[1353, 629]	56	0	1	1	23	[1495, 262]	89	13	112	99	158	126	74	11	34	56	23
10	8	collaborate	contingent	21.86	441.689980599	202992.656389	201054.658675	204427.970671	207551.064393	211558.835021	None	4007.77062864	4	4	0	75	1	0	1	45	[1220, 857]	30	1	0	1	18	[906, 934]	57	0	1	1	110	[878, 230]	-35	1	0	1	90	[577, 913]	-15	1	0	1	67	[309, 841]	8	0	1	1	138	[624, 177]	-63	0	1	1	166	[1035, 638]	89	0	1	1	2	[1160, 493]	73	30	75	45	18	110	90	67	138	166	2
11	8	collaborate	contingent	10.27	447.404183402	222798.558548	219724.984257	223983.758653	227106.098771	233168.403451	None	6062.30468048	4	4	2	33	1	0	1	13	[661, 684]	20	0	1	1	33	[603, 142]	0	1	0	1	176	[536, 568]	37	0	1	1	134	[734, 377]	79	0	1	1	144	[1057, 116]	69	1	0	1	120	[852, 750]	-87	0	1	1	51	[1302, 453]	-18	1	0	1	101	[174, 819]	-68	37	33	176	13	33	134	144	120	51	101
12	8	collaborate	contingent	98.47	538.775063128	241618.556334	239246.628024	243221.153557	246344.312523	251036.675168	None	4692.36264498	4	4	0	60	1	0	1	57	[513, 412]	3	0	1	1	89	[1284, 302]	-29	1	0	1	126	[1032, 528]	-66	0	1	1	26	[595, 259]	34	0	1	1	77	[1097, 114]	-17	1	0	1	141	[1363, 935]	-81	0	1	1	178	[848, 270]	62	1	0	1	112	[252, 769]	-52	3	60	57	89	126	26	77	141	178	112
13	8	collaborate	contingent	84.27	609.669262225	261691.662189	258250.994604	262960.022315	266083.88247	272880.104332	None	6796.22186171	4	4	0	138	1	0	1	128	[873, 687]	10	0	1	1	94	[745, 258]	44	1	0	1	171	[1378, 696]	-33	1	0	1	72	[1409, 851]	66	0	1	1	160	[247, 891]	-22	0	1	1	7	[1364, 536]	-49	0	1	1	29	[609, 385]	-71	1	0	1	56	[1025, 548]	82	10	138	128	94	171	72	160	7	29	56
14	8	collaborate	contingent	89.62	655.439400599	284135.958877	278090.208568	285404.500807	288527.561174	292837.104898	None	4309.54372482	4	4	4	43	0	1	1	133	[470, 711]	90	0	1	1	59	[556, 417]	-16	1	0	1	104	[1458, 568]	-61	1	0	1	23	[272, 898]	20	1	0	1	35	[348, 357]	8	0	1	1	77	[751, 821]	-34	1	0	1	176	[212, 699]	47	0	1	1	122	[1089, 805]	-79	8	43	35	133	59	104	23	77	176	122
15	8	collaborate	contingent	99.32	718.349910786	303309.120739	300284.047266	304408.722237	307532.602919	311840.46203	None	4307.85911117	4	4	3	173	1	0	1	104	[423, 895]	69	1	0	1	85	[559, 646]	88	0	1	1	64	[1471, 195]	-71	1	0	1	175	[383, 462]	-2	0	1	1	140	[1502, 694]	33	1	0	1	119	[414, 159]	54	0	1	1	129	[1283, 388]	44	0	1	1	17	[796, 143]	-24	-2	173	175	104	85	64	140	119	129	17
16	8	collaborate	contingent	78.17	789.722187144	323112.996303	319689.226537	324364.878665	327487.860592	332013.668243	None	4525.80765055	4	4	2	140	1	0	1	31	[556, 855]	-71	0	1	1	177	[279, 253]	-37	1	0	1	128	[1461, 605]	12	0	1	1	55	[1058, 331]	85	1	0	1	90	[388, 870]	50	0	1	1	139	[505, 255]	1	1	0	1	160	[866, 871]	-20	0	1	1	74	[1324, 387]	66	12	140	128	31	177	55	90	139	160	74
17	8	collaborate	contingent	24.11	802.283489162	341716.512806	339244.427323	343469.27706	346592.628093	351635.884836	None	5043.25674377	4	4	3	132	1	0	1	162	[608, 778]	-30	0	1	1	32	[1485, 415]	-80	0	1	1	149	[1505, 119]	-17	1	0	1	103	[1223, 915]	29	1	0	1	2	[1257, 685]	-50	1	0	1	138	[797, 811]	-6	0	1	1	51	[1206, 204]	81	0	1	1	18	[541, 441]	-66	29	132	103	162	32	149	2	138	51	18
18	8	collaborate	contingent	57.52	831.584886755	364929.033268	358415.554893	366197.32815	369321.108766	373679.131317	None	4358.02255095	4	4	3	69	1	0	1	76	[324, 525]	-7	1	0	1	179	[584, 742]	70	0	1	1	100	[882, 126]	-31	1	0	1	51	[290, 136]	18	0	1	1	23	[1050, 237]	46	0	1	1	115	[1300, 681]	-46	1	0	1	88	[457, 906]	-19	0	1	1	132	[354, 348]	-63	18	69	51	76	179	100	23	115	88	132
19	8	collaborate	contingent	91.95	922.371466026	384851.668229	381043.724081	386203.677707	389326.780592	393902.368649	None	4575.58805698	4	4	5	69	1	0	1	87	[550, 421]	-18	0	1	1	33	[1149, 472]	36	0	1	1	160	[797, 237]	89	0	1	1	140	[1405, 744]	-71	0	1	1	98	[1353, 285]	-29	1	0	1	76	[211, 607]	-7	1	0	1	115	[552, 786]	-46	1	0	1	21	[642, 577]	48	-7	69	76	87	33	160	140	98	115	21
20	8	collaborate	contingent	99.32	972.541766802	406160.990931	401634.439939	407429.516	410535.739027	414393.00834	None	3857.26931312	3	5	5	118	1	0	1	85	[205, 511]	33	0	1	1	60	[1217, 812]	58	0	1	1	12	[1428, 354]	-74	1	0	1	172	[293, 385]	-54	0	1	1	135	[1149, 414]	-17	1	0	1	116	[609, 263]	2	0	1	1	103	[988, 742]	15	0	1	1	47	[1035, 889]	71	2	118	116	85	60	12	172	135	103	47
21	8	collaborate	contingent	95.81	1020.94902971	425565.408533	422609.076901	426833.800182	429957.02879	434682.984009	None	4725.95521919	4	4	7	118	0	1	1	22	[1175, 917]	-84	0	1	1	168	[1278, 633]	-50	1	0	1	69	[376, 669]	49	0	1	1	102	[1215, 425]	16	1	0	1	42	[420, 295]	76	1	0	1	142	[196, 466]	-24	0	1	1	0	[1354, 141]	-62	1	0	1	123	[708, 168]	-5	-5	118	123	22	168	69	102	42	142	0
22	8	collaborate	contingent	10.27	1026.68167625	445839.675804	441863.769884	447090.493002	450214.368919	453987.757961	None	3773.38904239	4	4	6	127	0	1	1	84	[1466, 606]	43	0	1	1	72	[1124, 266]	55	0	1	1	22	[862, 140]	-75	0	1	1	178	[1174, 431]	-51	1	0	1	117	[397, 125]	10	1	0	1	41	[594, 719]	86	1	0	1	164	[345, 467]	-37	1	0	1	152	[527, 318]	-25	-37	127	164	84	72	22	178	117	41	152
23	8	collaborate	contingent	91.95	1110.107396	468483.477518	462838.551262	469751.928912	472875.442688	477333.890717	None	4458.44802952	4	4	2	17	1	0	1	178	[461, 505]	19	1	0	1	164	[336, 715]	33	1	0	1	24	[487, 786]	-7	0	1	1	117	[1128, 442]	80	0	1	1	130	[978, 357]	67	0	1	1	60	[786, 340]	-43	1	0	1	143	[1396, 564]	54	0	1	1	93	[1282, 156]	-76	-7	17	24	178	164	117	130	60	143	93
24	8	collaborate	contingent	99.83	1160.52249773	488673.489914	484615.003838	489925.13989	493048.447304	498710.048889	None	5661.60158521	4	4	2	171	0	1	1	149	[1305, 454]	22	0	1	1	93	[1129, 391]	78	1	0	1	170	[360, 538]	1	0	1	1	54	[522, 328]	-63	0	1	1	8	[467, 144]	-17	1	0	1	39	[248, 254]	-48	1	0	1	137	[815, 788]	34	1	0	1	64	[354, 920]	-73	1	171	170	149	93	54	8	39	137	64
25	8	collaborate	contingent	100.0	1244.56117483	508896.618384	505238.98605	510165.234721	513289.043927	516761.878982	None	3472.83505521	4	4	0	89	1	0	1	89	[1456, 385]	0	1	0	1	7	[615, 891]	82	1	0	1	175	[315, 789]	-86	1	0	1	156	[238, 189]	-67	0	1	1	41	[1297, 566]	48	0	1	1	119	[1071, 348]	-30	0	1	1	137	[914, 270]	-48	0	1	1	99	[734, 264]	-10	0	89	89	7	175	156	41	119	137	99
