trialnr	nstim	rewtype	rewamount	reward	total	fixonset	stimonset	maintenanceonset	probeonset	t1	rewardonset	RT	nfixself	nfixother	probedstim	response	self_fixated0	other_fixated0	rewarded0	ori0	XYloc0	error0	self_fixated1	other_fixated1	rewarded1	ori1	XYloc1	error1	self_fixated2	other_fixated2	rewarded2	ori2	XYloc2	error2	self_fixated3	other_fixated3	rewarded3	ori3	XYloc3	error3	self_fixated4	other_fixated4	rewarded4	ori4	XYloc4	error4	self_fixated5	other_fixated5	rewarded5	ori5	XYloc5	error5	self_fixated6	other_fixated6	rewarded6	ori6	XYloc6	error6	self_fixated7	other_fixated7	rewarded7	ori7	XYloc7	error7	E	X	T	NT0	NT1	NT2	NT3	NT4	NT5	NT6
1	8	collaborate	contingent	97.3	82.6886771004	15461.6810447	9431.12022731	20603.586132	23727.1998862	30841.466195	None	7114.26630873	5	3	7	134	1	0	1	115	[236, 189]	19	0	1	1	91	[1057, 457]	43	1	0	1	178	[1419, 914]	-44	1	0	1	158	[472, 629]	-24	0	1	1	53	[261, 931]	81	1	0	1	127	[802, 750]	7	0	1	1	23	[1102, 136]	-69	1	0	1	138	[622, 224]	-4	-4	134	138	115	91	178	158	53	127	23
2	8	collaborate	contingent	81.3	171.987226384	46941.9444534	37321.6885514	48210.173475	51333.5299197	55408.5440681	None	4075.01414836	5	3	7	133	1	0	1	179	[199, 274]	-46	1	0	1	61	[399, 387]	72	1	0	1	81	[1144, 268]	52	0	1	1	124	[916, 768]	9	0	1	1	26	[1069, 623]	-73	0	1	1	154	[1027, 914]	-21	1	0	1	41	[466, 587]	-88	1	0	1	144	[373, 922]	-11	-11	133	144	179	61	81	124	26	154	41
3	8	collaborate	contingent	99.32	265.174503291	66916.1629216	63258.3064783	70305.5143404	73428.8619883	79140.4352709	None	5711.57328262	5	3	3	28	1	0	1	5	[716, 870]	23	0	1	1	78	[1129, 133]	-50	1	0	1	121	[237, 916]	87	1	0	1	30	[472, 144]	-2	0	1	1	88	[1482, 599]	-60	1	0	1	149	[239, 207]	59	0	1	1	161	[874, 287]	47	1	0	1	173	[523, 788]	35	-2	28	30	5	78	121	88	149	161	173
4	8	collaborate	contingent	89.62	359.643125339	94689.8694832	86188.2043023	95941.1948837	99064.5923807	102588.375182	None	3523.78280146	5	3	2	45	0	1	1	77	[1302, 366]	-32	1	0	1	142	[377, 491]	83	1	0	1	53	[1268, 150]	-8	1	0	1	101	[276, 212]	-56	0	1	1	41	[1232, 684]	4	0	1	1	177	[1444, 899]	48	1	0	1	164	[218, 389]	61	1	0	1	28	[704, 153]	17	-8	45	53	77	142	101	41	177	164	28
5	8	collaborate	contingent	31.74	424.748333804	122279.759932	114396.511734	123531.035484	126654.438845	133184.650352	None	6530.21150694	5	3	1	39	0	1	1	50	[753, 875]	-11	1	0	1	13	[294, 885]	26	1	0	1	138	[403, 538]	81	1	0	1	62	[492, 251]	-23	1	0	1	157	[1397, 785]	62	0	1	1	103	[1265, 297]	-64	0	1	1	0	[1327, 131]	39	1	0	1	117	[906, 122]	-78	26	39	13	50	138	62	157	103	0	117
6	8	collaborate	contingent	64.57	504.937971918	144575.327538	139581.391172	149918.394037	153041.993863	160056.130857	None	7014.13699421	5	3	0	15	1	0	1	31	[343, 376]	-16	1	0	1	68	[1170, 625]	-53	1	0	1	98	[736, 108]	-83	0	1	1	155	[1340, 496]	40	0	1	1	173	[665, 420]	22	1	0	1	42	[580, 214]	-27	1	0	1	135	[936, 234]	60	0	1	1	11	[1482, 157]	4	-16	15	31	68	98	155	173	42	135	11
7	8	collaborate	contingent	94.02	595.475248826	173234.090796	164983.687238	174485.371845	177608.980468	181399.842462	None	3790.86199414	5	3	5	105	1	0	1	36	[557, 942]	69	1	0	1	94	[692, 789]	11	1	0	1	164	[439, 525]	-59	0	1	1	146	[1158, 501]	-41	0	1	1	7	[850, 907]	-82	1	0	1	111	[508, 343]	-6	1	0	1	48	[803, 136]	57	0	1	1	133	[1003, 629]	-28	-6	105	111	36	94	164	146	7	48	133
8	8	collaborate	contingent	2.55	645.398798109	197316.775846	189450.212079	198568.027939	201691.419938	206000.696422	None	4309.27648382	5	3	1	76	1	0	1	155	[253, 342]	-79	1	0	1	27	[809, 831]	49	0	1	1	132	[1125, 257]	-56	1	0	1	17	[1355, 154]	59	0	1	1	94	[874, 256]	-18	1	0	1	52	[1103, 894]	24	0	1	1	83	[1387, 924]	-7	1	0	1	114	[696, 668]	-38	49	76	27	155	132	17	94	52	83	114
9	8	collaborate	contingent	50.55	720.673798109	224489.063613	213949.779931	225740.345029	228864.603523	235928.241073	None	7063.63754989	5	3	6	26	1	0	1	28	[1425, 810]	-2	1	0	1	62	[889, 892]	-36	0	1	1	112	[352, 118]	-86	0	1	1	133	[561, 242]	73	1	0	1	47	[305, 846]	-21	1	0	1	78	[1028, 637]	-52	1	0	1	6	[226, 651]	20	0	1	1	89	[1007, 224]	-63	20	26	6	28	62	112	133	47	78	89
10	8	collaborate	contingent	94.02	813.660383335	244546.725132	240838.295643	249940.045788	253063.445484	256938.07748	None	3874.63199611	4	4	7	111	0	1	1	169	[691, 143]	-58	0	1	1	60	[1379, 280]	51	0	1	1	22	[306, 266]	89	1	0	1	139	[263, 511]	-28	1	0	1	96	[479, 518]	15	1	0	1	37	[987, 921]	74	0	1	1	129	[1287, 432]	-18	1	0	1	117	[422, 942]	-6	-6	111	117	169	60	22	139	96	37	129
11	8	collaborate	contingent	43.85	836.11850009	269581.330327	265055.034909	271751.261623	274876.142498	280436.058957	None	5559.91645872	5	3	0	114	1	0	1	136	[775, 888]	-22	0	1	1	20	[695, 360]	-86	1	0	1	115	[1110, 235]	-1	1	0	1	94	[1046, 837]	20	0	1	1	152	[883, 346]	-38	1	0	1	125	[1371, 646]	-11	1	0	1	34	[346, 131]	80	0	1	1	72	[968, 121]	42	-22	114	136	20	115	94	152	125	34	72
12	8	collaborate	contingent	89.62	927.93950422	299091.834565	286949.305997	300343.238038	303450.501644	307925.633157	None	4475.13151374	5	3	4	52	1	0	1	171	[360, 224]	61	0	1	1	144	[1153, 674]	88	0	1	1	61	[433, 658]	-9	1	0	1	29	[230, 826]	23	1	0	1	44	[670, 111]	8	0	1	1	98	[1017, 357]	-46	1	0	1	71	[376, 936]	-19	1	0	1	159	[823, 826]	73	8	52	44	171	144	61	29	98	71	159
13	8	collaborate	contingent	91.95	979.672543184	322640.022549	316175.790769	325277.872996	328401.034443	331925.14163	None	3524.10718737	5	3	3	117	0	1	1	82	[955, 305]	35	0	1	1	27	[1275, 682]	90	1	0	1	169	[961, 734]	-52	1	0	1	124	[368, 792]	-7	1	0	1	100	[227, 563]	17	1	0	1	143	[354, 350]	-26	1	0	1	65	[555, 210]	52	0	1	1	12	[746, 254]	-75	-7	117	124	82	27	169	100	143	65	12
14	8	collaborate	contingent	95.81	1037.46470425	349344.602658	341047.174874	350596.148348	353719.567471	356558.733641	None	2839.16617062	5	3	6	85	0	1	1	69	[1376, 343]	16	1	0	1	23	[319, 676]	62	0	1	1	40	[1301, 549]	45	0	1	1	96	[966, 191]	-11	1	0	1	129	[741, 192]	-44	1	0	1	143	[414, 363]	-58	1	0	1	80	[540, 161]	5	1	0	1	173	[1248, 713]	-88	5	85	80	69	23	40	96	129	143	173
15	8	collaborate	contingent	97.3	1121.87904667	370153.925693	365693.958212	373877.673526	377000.468435	381827.068959	None	4826.60052371	5	3	6	3	1	0	1	104	[1455, 489]	79	0	1	1	140	[566, 652]	43	1	0	1	14	[1325, 766]	-11	1	0	1	37	[358, 492]	-34	0	1	1	87	[772, 181]	-84	1	0	1	27	[505, 336]	-24	1	0	1	179	[672, 422]	4	0	1	1	118	[1276, 495]	65	4	3	179	104	140	14	37	87	27	118
16	8	collaborate	contingent	57.52	1198.54368478	394854.67145	389793.672606	396573.505112	399696.848362	403137.242727	None	3440.39436529	5	3	1	31	1	0	1	71	[755, 857]	-40	1	0	1	13	[248, 187]	18	1	0	1	1	[200, 350]	30	0	1	1	43	[709, 335]	-12	1	0	1	114	[236, 852]	-83	1	0	1	154	[526, 253]	57	0	1	1	86	[912, 223]	-55	0	1	1	124	[1082, 265]	87	18	31	13	71	1	43	114	154	86	124
17	8	collaborate	contingent	68.08	1263.10695244	422428.368628	412189.073363	423595.48858	426718.926396	429758.497078	None	3039.57068167	4	4	2	162	0	1	1	118	[1427, 478]	44	1	0	1	49	[1135, 746]	-67	1	0	1	177	[188, 705]	-15	1	0	1	161	[266, 474]	1	0	1	1	102	[783, 251]	60	0	1	1	31	[476, 400]	-49	1	0	1	150	[624, 795]	12	0	1	1	65	[1215, 560]	-83	-15	162	177	118	49	161	102	31	150	65
18	8	collaborate	contingent	26.5	1319.88422934	448213.877339	438960.70752	450066.373388	453189.795809	456547.947535	None	3358.1517261	5	3	2	68	1	0	1	58	[1129, 786]	10	1	0	1	173	[1362, 756]	75	1	0	1	96	[856, 870]	-28	0	1	1	10	[478, 759]	58	1	0	1	123	[1132, 361]	-55	0	1	1	135	[632, 593]	-67	0	1	1	32	[1180, 163]	36	1	0	1	148	[294, 723]	-80	-28	68	96	58	173	10	123	135	32	148
19	8	collaborate	contingent	68.08	1403.58285139	473198.167165	466416.804363	474449.630017	477573.508778	483585.44288	None	6011.93410238	4	4	7	133	1	0	1	116	[532, 765]	17	0	1	1	68	[1044, 605]	65	1	0	1	50	[611, 621]	83	0	1	1	99	[1147, 270]	34	0	1	1	85	[1366, 227]	48	1	0	1	170	[981, 128]	-37	0	1	1	4	[1353, 435]	-51	1	0	1	148	[620, 354]	-15	-15	133	148	116	68	50	99	85	170	4
20	8	collaborate	contingent	87.05	1496.76647344	496078.311155	489330.545936	497329.822024	500453.954796	503810.099361	None	3356.14456542	5	3	3	71	1	0	1	33	[599, 255]	38	1	0	1	108	[1056, 135]	-37	0	1	1	91	[1204, 669]	-20	1	0	1	62	[446, 385]	9	0	1	1	4	[977, 652]	67	1	0	1	52	[1361, 308]	19	0	1	1	162	[713, 796]	89	1	0	1	140	[448, 828]	-69	9	71	62	33	108	91	4	52	162	140
21	8	collaborate	contingent	31.74	1557.44805271	519927.648382	513379.78515	521262.163555	524385.594407	529379.230945	None	4993.63653824	5	3	4	132	1	0	1	140	[1072, 192]	-8	1	0	1	13	[766, 290]	-61	0	1	1	33	[1178, 694]	-81	0	1	1	74	[1402, 440]	58	1	0	1	158	[191, 883]	-26	1	0	1	174	[502, 588]	-42	1	0	1	84	[646, 770]	48	0	1	1	107	[1507, 801]	25	-26	132	158	140	13	33	74	174	84	107
22	8	collaborate	contingent	1.0	1607.18326118	541689.522372	537445.525161	543859.027018	546981.944351	550121.663773	None	3139.71942269	4	4	5	152	0	1	1	112	[1001, 288]	40	0	1	1	150	[427, 336]	2	0	1	1	98	[800, 113]	54	1	0	1	34	[286, 745]	-62	1	0	1	166	[396, 937]	-14	1	0	1	71	[660, 760]	81	1	0	1	14	[1253, 627]	-42	0	1	1	124	[1471, 691]	28	81	152	71	112	150	98	34	166	14	124
23	8	collaborate	contingent	71.53	1692.60688322	564552.371279	559991.732375	567273.097376	570396.574045	573953.784722	None	3557.2106771	5	3	5	11	1	0	1	153	[526, 746]	38	1	0	1	92	[1134, 790]	-81	1	0	1	75	[1279, 898]	-64	0	1	1	49	[1093, 634]	-38	1	0	1	163	[1374, 337]	28	1	0	1	177	[1406, 617]	14	0	1	1	138	[455, 444]	53	0	1	1	19	[1419, 179]	-8	14	11	177	153	92	75	49	163	138	19
24	8	collaborate	contingent	81.3	1783.17131713	589904.120324	583991.980887	591239.123359	594345.409408	599188.791129	None	4843.3817212	5	3	4	59	1	0	1	81	[753, 896]	-22	1	0	1	35	[1060, 898]	24	0	1	1	150	[719, 203]	89	0	1	1	3	[514, 472]	56	1	0	1	70	[1211, 807]	-11	1	0	1	59	[1426, 847]	0	0	1	1	115	[967, 230]	-56	1	0	1	132	[504, 925]	-73	-11	59	70	81	35	150	3	59	115	132
25	8	collaborate	contingent	78.17	1872.17075103	613251.813629	606988.668852	614487.241921	617609.976718	621451.07161	None	3841.09489222	4	4	2	163	1	0	1	142	[1445, 679]	21	0	1	1	53	[1098, 486]	-70	1	0	1	175	[535, 758]	-12	0	1	1	114	[1391, 111]	49	1	0	1	153	[1302, 535]	10	0	1	1	35	[1477, 369]	-52	0	1	1	90	[1037, 230]	73	1	0	1	73	[219, 315]	90	-12	163	175	142	53	114	153	35	90	73
