trialnr	nstim	rewtype	rewamount	reward	total	fixonset	stimonset	maintenanceonset	probeonset	t1	rewardonset	RT	nfixself	nfixother	probedstim	response	self_fixated0	other_fixated0	rewarded0	ori0	XYloc0	error0	self_fixated1	other_fixated1	rewarded1	ori1	XYloc1	error1	self_fixated2	other_fixated2	rewarded2	ori2	XYloc2	error2	self_fixated3	other_fixated3	rewarded3	ori3	XYloc3	error3	self_fixated4	other_fixated4	rewarded4	ori4	XYloc4	error4	self_fixated5	other_fixated5	rewarded5	ori5	XYloc5	error5	self_fixated6	other_fixated6	rewarded6	ori6	XYloc6	error6	self_fixated7	other_fixated7	rewarded7	ori7	XYloc7	error7	E	X	T	NT0	NT1	NT2	NT3	NT4	NT5	NT6
1	8	collaborate	contingent	87.05	47.587579212	16920.975716	13647.4988014	18406.669643	21530.3616435	25504.070798	None	3973.70915457	4	4	7	55	0	1	1	100	[1398, 123]	-45	1	0	1	57	[385, 301]	-2	1	0	1	26	[718, 863]	29	1	0	1	88	[330, 650]	-33	0	1	1	67	[1345, 325]	-12	0	1	1	111	[1387, 733]	-56	0	1	1	155	[1115, 161]	80	1	0	1	46	[554, 890]	9	9	55	46	100	57	26	88	67	111	155
2	8	collaborate	contingent	68.08	85.690158424	37930.2290291	35106.3616024	39182.3337043	42303.8719132	45393.6684539	None	3089.79654074	4	4	5	162	0	1	1	27	[1149, 762]	-45	1	0	1	125	[818, 246]	37	0	1	1	90	[1371, 712]	72	1	0	1	167	[304, 732]	-5	1	0	1	4	[619, 124]	-22	1	0	1	147	[531, 466]	15	0	1	1	104	[1106, 603]	58	0	1	1	114	[1305, 225]	48	15	162	147	27	125	90	167	4	104	114
3	8	collaborate	contingent	61.05	155.299159918	61577.6043064	54362.5213143	63128.8210007	66267.8116657	71428.3156881	None	5160.50402241	4	4	1	136	1	0	1	9	[1100, 309]	-53	1	0	1	153	[833, 178]	-17	1	0	1	126	[623, 333]	10	0	1	1	68	[1318, 775]	68	1	0	1	79	[494, 420]	57	0	1	1	32	[576, 818]	-76	0	1	1	45	[1047, 643]	-89	0	1	1	109	[936, 857]	27	-17	136	153	9	126	68	79	32	45	109
4	8	collaborate	contingent	26.5	218.207781965	83954.5970035	78775.6490331	85271.640547	88378.5574581	91084.1342242	None	2705.57676603	4	4	6	59	0	1	1	175	[582, 937]	64	1	0	1	83	[1021, 212]	-24	0	1	1	147	[336, 918]	-88	1	0	1	64	[832, 252]	-5	0	1	1	124	[361, 590]	-65	1	0	1	47	[1005, 510]	12	1	0	1	31	[296, 281]	28	0	1	1	113	[428, 728]	-54	28	59	31	175	83	147	64	124	47	113
5	8	collaborate	contingent	99.32	279.920900096	103341.22055	98416.0006627	104595.044667	107700.437869	110905.66129	None	3205.22342105	4	4	4	124	1	0	1	60	[377, 844]	64	0	1	1	36	[1143, 943]	88	1	0	1	159	[413, 387]	-35	0	1	1	145	[924, 701]	-21	1	0	1	126	[885, 350]	-2	0	1	1	93	[1288, 105]	31	0	1	1	79	[1317, 434]	45	1	0	1	114	[236, 921]	10	-2	124	126	60	36	159	145	93	79	114
6	8	collaborate	contingent	84.27	347.333280266	123364.040258	116483.572024	124548.94451	127672.608287	130494.219291	None	2821.61100384	4	4	3	75	0	1	1	113	[1325, 648]	-38	1	0	1	9	[528, 277]	66	0	1	1	178	[1450, 840]	77	1	0	1	65	[173, 676]	10	0	1	1	155	[1092, 631]	-80	0	1	1	76	[1054, 390]	-1	1	0	1	31	[303, 446]	44	1	0	1	21	[749, 386]	54	10	75	65	113	9	178	155	76	31	21
7	8	collaborate	contingent	95.81	444.896902314	143837.859741	139696.677897	145089.356326	148229.169874	152705.918382	None	4476.74850781	4	4	4	168	0	1	1	157	[1289, 796]	11	0	1	1	143	[1085, 545]	25	1	0	1	93	[201, 200]	75	1	0	1	24	[962, 357]	-36	1	0	1	173	[1372, 437]	-5	0	1	1	65	[978, 691]	-77	1	0	1	45	[1183, 314]	-57	0	1	1	131	[1446, 702]	37	-5	168	173	157	143	93	24	65	45	131
8	8	collaborate	contingent	98.47	537.659179222	163142.811482	158099.320727	164243.952449	167350.293892	170757.139108	None	3406.84521584	3	5	0	7	1	0	1	4	[272, 465]	3	0	1	1	157	[1441, 783]	30	0	1	1	43	[1016, 749]	-36	1	0	1	57	[921, 130]	-50	0	1	1	94	[1110, 525]	-87	0	1	1	117	[639, 434]	70	0	1	1	127	[483, 320]	60	1	0	1	168	[762, 136]	19	3	7	4	157	43	57	94	117	127	168
9	8	collaborate	contingent	91.95	610.641082378	181411.588249	177556.06016	182680.065186	185788.236398	188375.078256	None	2586.84185833	3	5	0	137	1	0	1	144	[781, 760]	-7	0	1	1	30	[401, 521]	-73	1	0	1	134	[286, 930]	3	1	0	1	74	[1225, 686]	63	0	1	1	18	[552, 306]	-61	0	1	1	100	[483, 676]	37	0	1	1	62	[327, 188]	75	0	1	1	51	[609, 130]	86	-7	137	144	30	134	74	18	100	62	51
10	8	collaborate	contingent	3.55	618.174121342	202369.536898	197944.702611	203622.320406	206727.647631	210134.391682	None	3406.74405068	4	4	6	139	0	1	1	52	[223, 851]	87	1	0	1	144	[973, 167]	-5	0	1	1	156	[1274, 473]	-17	1	0	1	25	[955, 880]	-66	1	0	1	82	[716, 776]	57	0	1	1	166	[452, 501]	-27	1	0	1	93	[1399, 332]	46	0	1	1	178	[440, 239]	-39	46	139	93	52	144	156	25	82	166	178
11	8	collaborate	contingent	89.62	698.748463758	224329.81931	218953.28149	225430.95258	228554.466442	230825.171578	None	2270.70513582	4	4	5	148	0	1	1	88	[461, 469]	60	1	0	1	19	[914, 807]	-51	0	1	1	43	[750, 290]	-75	0	1	1	170	[1259, 237]	-22	0	1	1	5	[590, 202]	-37	1	0	1	140	[1022, 507]	8	1	0	1	29	[555, 725]	-61	1	0	1	119	[760, 846]	29	8	148	140	88	19	43	170	5	29	119
12	8	collaborate	contingent	91.95	788.250740665	249128.446763	244753.321223	250380.180499	253486.218813	257178.332549	None	3692.11373603	4	4	1	98	0	1	1	126	[579, 457]	-28	1	0	1	105	[1486, 572]	-7	0	1	1	157	[601, 203]	-59	1	0	1	137	[1044, 762]	-39	0	1	1	167	[475, 653]	-69	1	0	1	64	[1227, 679]	34	0	1	1	8	[332, 170]	90	1	0	1	89	[1370, 305]	9	-7	98	105	126	157	137	167	64	8	89
13	8	collaborate	contingent	29.05	848.752325891	271572.4918	263372.683648	273308.70255	276415.532957	280757.23844	None	4341.7054833	3	5	0	58	1	0	1	31	[947, 798]	27	1	0	1	133	[195, 891]	-75	0	1	1	177	[645, 844]	61	1	0	1	52	[814, 138]	6	0	1	1	111	[1498, 187]	-53	0	1	1	98	[1401, 625]	-40	0	1	1	160	[1510, 817]	78	0	1	1	122	[1336, 884]	-64	27	58	31	133	177	52	111	98	160	122
14	8	collaborate	contingent	97.3	947.060947938	291980.442502	285632.992964	293431.454007	296554.6838	301931.786093	None	5377.10229264	4	4	6	38	0	1	1	135	[1159, 326]	83	1	0	1	80	[640, 318]	-42	0	1	1	176	[1443, 876]	42	1	0	1	104	[884, 798]	-66	1	0	1	154	[236, 505]	64	0	1	1	11	[1096, 712]	27	1	0	1	42	[375, 609]	-4	0	1	1	90	[1467, 401]	-52	-4	38	42	135	80	176	104	154	11	90
15	8	collaborate	contingent	26.5	961.730207736	311836.211042	307025.358733	313170.441667	316294.572782	319900.576641	None	3606.00385894	5	3	1	158	0	1	1	38	[387, 636]	-60	1	0	1	130	[437, 425]	28	1	0	1	22	[706, 209]	-44	0	1	1	68	[1060, 900]	90	1	0	1	169	[1383, 487]	-11	1	0	1	83	[1221, 207]	75	1	0	1	3	[1470, 127]	-25	0	1	1	95	[1368, 834]	63	28	158	130	38	22	68	169	83	3	95
16	8	collaborate	contingent	87.05	1005.85285428	328519.262066	325629.055953	329922.024388	333026.651155	336717.072207	None	3690.42105232	4	4	4	172	0	1	1	159	[462, 693]	13	1	0	1	134	[1141, 653]	38	0	1	1	91	[370, 502]	81	0	1	1	112	[876, 867]	60	1	0	1	1	[1421, 897]	-9	1	0	1	169	[1231, 470]	3	0	1	1	124	[591, 569]	48	1	0	1	60	[1223, 812]	-68	-9	172	1	159	134	91	112	169	124	60
17	8	collaborate	contingent	43.85	1053.05523445	348373.993297	342127.538109	349876.086976	352999.555753	358276.305141	None	5276.74938751	4	4	7	166	1	0	1	162	[1138, 515]	4	0	1	1	44	[415, 691]	-58	1	0	1	73	[688, 164]	-87	1	0	1	175	[1017, 732]	-9	0	1	1	56	[170, 865]	-70	0	1	1	16	[242, 218]	-30	0	1	1	126	[476, 468]	40	1	0	1	144	[1353, 395]	22	22	166	144	162	44	73	175	56	16	126
18	8	collaborate	contingent	78.17	1140.04487256	367528.579524	363353.056874	368780.061813	371902.836363	376496.898701	None	4594.06233826	4	4	6	8	1	0	1	97	[323, 913]	-89	1	0	1	21	[1387, 257]	-13	0	1	1	79	[616, 251]	-71	0	1	1	51	[169, 290]	-43	0	1	1	118	[545, 497]	70	1	0	1	154	[1399, 710]	34	1	0	1	176	[1012, 268]	12	0	1	1	31	[241, 513]	-23	12	8	176	97	21	79	51	118	154	31
19	8	collaborate	contingent	94.02	1210.63557535	387083.510006	383709.727103	388402.774784	391525.065867	394999.886739	None	3474.82087169	4	4	7	3	1	0	1	52	[1012, 649]	-49	0	1	1	107	[636, 463]	76	0	1	1	14	[273, 223]	-11	1	0	1	129	[1276, 507]	54	1	0	1	119	[1254, 140]	64	0	1	1	165	[352, 678]	18	0	1	1	144	[559, 327]	39	1	0	1	177	[990, 186]	6	6	3	177	52	107	14	129	119	165	144
20	8	collaborate	contingent	95.81	1297.62457684	403983.215014	400526.105376	405470.22922	408575.399566	412850.984454	None	4275.58488856	4	4	1	99	1	0	1	122	[1005, 468]	-23	1	0	1	104	[466, 736]	-5	0	1	1	22	[192, 108]	77	0	1	1	174	[705, 154]	-75	0	1	1	154	[632, 587]	-55	0	1	1	142	[699, 340]	-43	1	0	1	90	[1253, 755]	9	1	0	1	35	[1285, 365]	64	-5	99	104	122	22	174	154	142	90	35
21	8	collaborate	contingent	84.27	1389.67401074	431320.505518	419564.431576	432622.309777	435728.841454	442475.880174	None	6747.03871986	5	3	3	39	0	1	1	21	[638, 632]	18	1	0	1	1	[1264, 794]	38	0	1	1	39	[285, 777]	0	1	0	1	49	[1218, 523]	-10	0	1	1	142	[667, 291]	77	1	0	1	71	[723, 777]	-32	1	0	1	87	[437, 530]	-48	1	0	1	99	[1280, 237]	-60	-10	39	49	21	1	39	142	71	87	99
22	8	collaborate	contingent	87.05	1450.4869007	453982.209594	447819.147119	455083.232535	458191.452497	462983.077928	None	4791.62543087	4	4	3	53	0	1	1	78	[543, 743]	-25	1	0	1	109	[1461, 344]	-56	1	0	1	12	[1222, 879]	41	1	0	1	62	[764, 760]	-9	0	1	1	99	[227, 381]	-46	1	0	1	144	[1039, 872]	89	0	1	1	37	[612, 609]	16	0	1	1	24	[563, 160]	29	-9	53	62	78	109	12	99	144	37	24
23	8	collaborate	contingent	26.5	1513.7369007	475825.892196	468176.990278	477427.339957	480534.997647	484794.76375	None	4259.76610322	5	3	1	170	1	0	1	95	[1402, 850]	75	1	0	1	142	[869, 904]	28	1	0	1	114	[1233, 633]	56	1	0	1	53	[802, 357]	-63	1	0	1	159	[777, 123]	11	0	1	1	12	[439, 235]	-22	0	1	1	27	[206, 929]	-37	0	1	1	177	[1215, 194]	-7	28	170	142	95	114	53	159	12	27	177
24	8	collaborate	contingent	97.3	1579.67479066	500307.535485	492657.857601	501541.975477	504664.445432	507772.824839	None	3108.37940747	5	3	3	79	0	1	1	59	[369, 652]	20	0	1	1	31	[688, 125]	48	1	0	1	21	[1223, 341]	58	1	0	1	75	[1043, 589]	4	1	0	1	139	[1308, 211]	-60	1	0	1	90	[1199, 565]	-11	1	0	1	125	[1471, 941]	-46	0	1	1	149	[407, 913]	-70	4	79	75	59	31	21	139	90	125	149
25	8	collaborate	contingent	64.57	1612.46022956	519827.913667	512864.377475	521096.52659	524219.77471	528177.643819	None	3957.86910988	4	4	7	145	1	0	1	159	[1349, 216]	-14	0	1	1	106	[821, 811]	39	0	1	1	24	[305, 758]	-59	0	1	1	173	[1040, 726]	-28	1	0	1	117	[1454, 677]	28	0	1	1	40	[665, 812]	-75	1	0	1	79	[1264, 721]	66	1	0	1	129	[957, 189]	16	16	145	129	159	106	24	173	117	40	79
