trialnr	nstim	rewtype	rewamount	reward	total	fixonset	stimonset	maintenanceonset	probeonset	t1	rewardonset	RT	nfixself	nfixother	probedstim	response	self_fixated0	other_fixated0	rewarded0	ori0	XYloc0	error0	self_fixated1	other_fixated1	rewarded1	ori1	XYloc1	error1	self_fixated2	other_fixated2	rewarded2	ori2	XYloc2	error2	self_fixated3	other_fixated3	rewarded3	ori3	XYloc3	error3	self_fixated4	other_fixated4	rewarded4	ori4	XYloc4	error4	self_fixated5	other_fixated5	rewarded5	ori5	XYloc5	error5	self_fixated6	other_fixated6	rewarded6	ori6	XYloc6	error6	self_fixated7	other_fixated7	rewarded7	ori7	XYloc7	error7	E	X	T	NT0	NT1	NT2	NT3	NT4	NT5	NT6
1	8	collaborate	contingent	71.53	80.5765792704	16685.3902849	8771.23918522	18020.6552863	21144.0635845	25068.6350621	None	3924.57147758	5	3	2	113	0	1	1	82	[1156, 440]	31	1	0	1	178	[659, 674]	-65	1	0	1	127	[855, 942]	-14	0	1	1	60	[925, 224]	53	1	0	1	49	[168, 521]	64	1	0	1	96	[992, 762]	17	0	1	1	149	[1476, 340]	-36	1	0	1	114	[1202, 737]	-1	-14	113	127	82	178	60	49	96	149	114
2	8	collaborate	contingent	99.32	158.995778368	43605.3818398	34086.752789	44840.5864354	47963.4500545	51286.9252829	None	3323.47522846	5	3	7	10	0	1	1	72	[478, 420]	-62	1	0	1	0	[688, 860]	10	1	0	1	136	[1319, 744]	54	0	1	1	147	[450, 203]	43	1	0	1	43	[1167, 916]	-33	1	0	1	59	[1498, 504]	-49	0	1	1	114	[274, 292]	76	1	0	1	12	[202, 758]	-2	-2	10	12	72	0	136	147	43	59	114
3	8	collaborate	contingent	78.17	242.892357638	71777.5220547	62208.0336865	72878.6157381	76002.2249004	79308.9906503	None	3306.76574988	4	4	7	50	1	0	1	52	[757, 671]	-2	0	1	1	112	[637, 374]	-62	1	0	1	150	[633, 582]	80	0	1	1	176	[1491, 392]	54	0	1	1	31	[1132, 233]	19	0	1	1	82	[1051, 809]	-32	1	0	1	133	[359, 505]	-83	1	0	1	62	[295, 685]	-12	-12	50	62	52	112	150	176	31	82	133
4	8	collaborate	contingent	78.17	325.504634546	97077.0984806	91532.8662142	98379.8260546	101501.943764	105226.666403	None	3724.72263886	4	4	6	63	1	0	1	146	[559, 907]	-83	1	0	1	134	[768, 706]	-71	0	1	1	47	[1320, 110]	16	0	1	1	13	[1357, 496]	50	0	1	1	114	[845, 127]	-51	1	0	1	94	[216, 779]	-31	1	0	1	75	[317, 277]	-12	0	1	1	159	[1146, 171]	84	-12	63	75	146	134	47	13	114	94	159
5	8	collaborate	contingent	95.81	373.909771773	123279.026703	114361.244654	124830.980877	127970.979895	132964.173972	None	4993.19407729	4	4	1	53	0	1	1	175	[877, 139]	58	1	0	1	48	[1085, 531]	5	1	0	1	158	[348, 112]	75	1	0	1	65	[331, 863]	-12	0	1	1	77	[1377, 686]	-24	1	0	1	28	[549, 329]	25	0	1	1	102	[989, 278]	-49	0	1	1	147	[1495, 582]	86	5	53	48	175	158	65	77	28	102	147
6	8	collaborate	contingent	99.83	468.636351043	150582.841803	141197.69688	151867.604864	154992.670291	159232.3848	None	4239.71450899	4	4	3	24	0	1	1	13	[232, 213]	11	0	1	1	145	[629, 229]	59	1	0	1	78	[694, 713]	-54	1	0	1	23	[541, 796]	1	1	0	1	119	[1461, 820]	85	0	1	1	66	[462, 505]	-42	1	0	1	0	[930, 760]	24	0	1	1	131	[1090, 292]	73	1	24	23	13	145	78	119	66	0	131
7	8	collaborate	contingent	100.0	568.294973091	177452.21669	167047.826562	179088.119985	182194.712508	186370.438221	None	4175.7257134	4	4	1	43	0	1	1	119	[1396, 556]	-76	1	0	1	43	[244, 644]	0	0	1	1	91	[743, 828]	-48	1	0	1	61	[414, 921]	-18	1	0	1	170	[364, 116]	53	0	1	1	15	[1014, 823]	28	1	0	1	0	[620, 565]	43	0	1	1	29	[1021, 571]	14	0	43	43	119	91	61	170	15	0	29
8	8	collaborate	contingent	78.17	654.390977221	204338.193293	194334.951243	205507.535705	208612.913879	215209.868588	None	6596.9547088	4	4	0	35	1	0	1	47	[298, 702]	-12	0	1	1	21	[1186, 615]	14	1	0	1	174	[775, 896]	41	0	1	1	90	[1504, 681]	-55	1	0	1	107	[524, 196]	-72	0	1	1	61	[1032, 410]	-26	1	0	1	4	[701, 125]	31	0	1	1	78	[1350, 232]	-43	-12	35	47	21	174	90	107	61	4	78
9	8	collaborate	contingent	99.32	744.701285117	231391.41643	221254.832469	232960.596171	236084.652146	242563.265978	None	6478.61383206	4	4	2	151	1	0	1	109	[543, 638]	42	0	1	1	71	[1127, 500]	80	1	0	1	149	[501, 121]	2	1	0	1	31	[788, 824]	-60	1	0	1	47	[229, 785]	-76	0	1	1	132	[1226, 208]	19	0	1	1	5	[1137, 739]	-34	0	1	1	165	[941, 923]	-14	2	151	149	109	71	31	47	132	5	165
10	8	collaborate	contingent	98.47	843.171493583	255973.300462	247856.9488	257308.721243	260432.524305	265625.186752	None	5192.66244705	4	4	3	5	1	0	1	135	[1259, 650]	50	1	0	1	153	[915, 837]	32	0	1	1	67	[440, 861]	-62	1	0	1	8	[1233, 906]	-3	0	1	1	79	[212, 113]	-74	1	0	1	32	[1349, 209]	-27	0	1	1	44	[507, 474]	-39	0	1	1	57	[792, 351]	-52	-3	5	8	135	153	67	79	32	44	57
11	8	collaborate	contingent	98.47	942.06511563	285649.288985	273557.960305	287117.245654	290224.355365	295601.653757	None	5377.29839177	4	4	1	42	0	1	1	65	[356, 540]	-23	1	0	1	39	[1473, 410]	3	0	1	1	81	[601, 321]	-39	0	1	1	2	[419, 386]	40	1	0	1	54	[1396, 887]	-12	1	0	1	113	[1266, 772]	-71	1	0	1	145	[933, 921]	77	0	1	1	15	[341, 184]	27	3	42	39	65	81	2	54	113	145	15
12	8	collaborate	contingent	19.77	970.723267601	311583.950954	302648.662567	313353.04038	316494.574102	320450.121178	None	3955.54707625	4	4	3	166	1	0	1	54	[1090, 491]	-68	0	1	1	111	[566, 490]	55	0	1	1	76	[306, 153]	90	1	0	1	135	[1317, 401]	31	0	1	1	153	[641, 129]	13	1	0	1	1	[674, 857]	-15	0	1	1	166	[488, 661]	0	1	0	1	64	[406, 940]	-78	31	166	135	54	111	76	153	1	166	64
13	8	collaborate	contingent	100.0	1067.73427173	340606.466433	332690.89169	342560.513259	345682.860789	350876.467078	None	5193.60628866	4	4	5	98	0	1	1	108	[664, 513]	-10	0	1	1	37	[1334, 182]	61	1	0	1	86	[729, 182]	12	1	0	1	12	[1107, 116]	86	0	1	1	57	[977, 429]	41	1	0	1	98	[902, 712]	0	1	0	1	157	[365, 428]	-59	0	1	1	25	[1407, 337]	73	0	98	98	108	37	86	12	57	157	25
14	8	collaborate	contingent	95.81	1165.55370563	366207.633058	357773.292545	367459.021513	370598.991941	375358.156917	None	4759.16497692	4	4	2	54	0	1	1	31	[1425, 397]	23	1	0	1	80	[592, 193]	-26	1	0	1	59	[318, 891]	-5	1	0	1	159	[597, 500]	75	0	1	1	8	[1090, 412]	46	1	0	1	129	[1116, 753]	-75	0	1	1	107	[1282, 333]	-53	0	1	1	169	[1365, 903]	65	-5	54	59	31	80	159	8	129	107	169
15	8	collaborate	contingent	54.01	1231.64270713	393928.941373	385194.718739	395180.274114	398303.699273	403113.905004	None	4810.20573181	5	3	3	27	0	1	1	70	[311, 643]	-43	1	0	1	33	[1115, 798]	-6	1	0	1	159	[1402, 444]	48	1	0	1	46	[1468, 932]	-19	0	1	1	9	[445, 379]	18	1	0	1	122	[507, 571]	85	0	1	1	171	[1476, 634]	36	1	0	1	133	[1120, 596]	74	-19	27	46	70	33	159	9	122	171	133
16	8	collaborate	contingent	98.47	1324.40498403	421332.400854	410912.822391	423469.106873	426592.464589	432186.59437	None	5594.1297817	4	4	2	49	0	1	1	112	[1009, 154]	-63	0	1	1	27	[819, 179]	22	1	0	1	52	[206, 153]	-3	1	0	1	68	[984, 930]	-19	0	1	1	151	[574, 192]	78	1	0	1	99	[171, 378]	-50	0	1	1	161	[1007, 432]	68	1	0	1	178	[330, 356]	51	-3	49	52	112	27	68	151	99	161	178
17	8	collaborate	contingent	94.02	1412.06529193	445012.173907	438766.326444	447033.03189	450172.112724	456000.440215	None	5828.32749068	4	4	3	42	0	1	1	24	[603, 145]	18	1	0	1	103	[277, 927]	-61	0	1	1	78	[1022, 387]	-36	1	0	1	48	[424, 396]	-6	0	1	1	92	[987, 223]	-50	0	1	1	132	[1196, 499]	90	1	0	1	159	[400, 662]	63	1	0	1	60	[600, 672]	-18	-6	42	48	24	103	78	92	132	159	60
18	8	collaborate	contingent	95.81	1505.94687716	471364.622324	462479.846508	480064.061004	483187.173871	486895.345376	None	3708.17150573	4	4	2	128	1	0	1	69	[601, 376]	59	0	1	1	109	[1454, 387]	19	1	0	1	123	[636, 632]	5	0	1	1	166	[1188, 575]	-38	0	1	1	179	[1457, 632]	-51	1	0	1	28	[201, 339]	-80	1	0	1	139	[1157, 274]	-11	0	1	1	58	[832, 944]	70	5	128	123	69	109	166	179	28	139	58
19	8	collaborate	contingent	87.05	1595.44846238	506349.759476	495862.594622	507601.514105	510725.566415	514132.193173	None	3406.62675774	4	4	4	164	1	0	1	126	[258, 740]	38	0	1	1	143	[757, 296]	21	0	1	1	46	[1052, 202]	-62	0	1	1	27	[1027, 464]	-43	1	0	1	173	[232, 477]	-9	1	0	1	13	[679, 802]	-29	1	0	1	100	[628, 478]	64	0	1	1	61	[1426, 676]	-77	-9	164	173	126	143	46	27	13	100	61
20	8	collaborate	contingent	2.84	1640.39573929	530747.835945	522798.542415	532099.819589	535223.751307	540401.079535	None	5177.32822816	5	3	2	128	0	1	1	22	[1196, 910]	-74	0	1	1	48	[1347, 845]	80	1	0	1	80	[973, 787]	48	0	1	1	154	[1177, 473]	-26	1	0	1	133	[419, 942]	-5	1	0	1	63	[506, 262]	65	1	0	1	165	[570, 612]	-37	1	0	1	122	[172, 886]	6	48	128	80	22	48	154	133	63	165	122
21	8	collaborate	contingent	9.14	1694.20094776	560539.968668	547480.286356	566200.361995	569323.474862	576404.632045	None	7081.1571828	4	4	6	50	0	1	1	74	[455, 667]	-24	0	1	1	173	[591, 461]	57	1	0	1	162	[1408, 867]	68	0	1	1	146	[569, 825]	84	0	1	1	33	[168, 708]	17	1	0	1	110	[1479, 542]	-60	1	0	1	12	[667, 699]	38	1	0	1	97	[385, 381]	-47	38	50	12	74	173	162	146	33	110	97
22	8	collaborate	contingent	84.27	1778.47182748	592020.543491	581330.299112	593104.888843	596227.021214	602740.391876	None	6513.37066181	4	4	0	114	1	0	1	104	[921, 686]	10	0	1	1	89	[453, 912]	25	1	0	1	43	[1286, 284]	71	0	1	1	74	[589, 572]	40	1	0	1	129	[1004, 832]	-15	0	1	1	163	[307, 866]	-49	1	0	1	29	[1368, 931]	85	0	1	1	1	[410, 122]	-67	10	114	104	89	43	74	129	163	29	1
23	8	collaborate	contingent	71.53	1853.32082898	619772.991982	608383.521149	621208.789493	624315.046631	627254.516878	None	2939.47024645	4	4	4	146	1	0	1	123	[1032, 876]	23	0	1	1	112	[372, 326]	34	1	0	1	79	[219, 806]	67	0	1	1	34	[947, 161]	-68	1	0	1	160	[1461, 313]	-14	0	1	1	68	[385, 590]	78	0	1	1	146	[696, 235]	0	1	0	1	55	[742, 899]	-89	-14	146	160	123	112	79	34	68	146	55
24	8	collaborate	contingent	81.3	1943.88526288	652921.988467	636338.606384	654657.905617	657781.884985	663342.022907	None	5560.13792183	4	4	2	129	1	0	1	170	[1453, 651]	-41	1	0	1	136	[1113, 646]	-7	1	0	1	118	[1233, 116]	11	0	1	1	73	[477, 113]	56	0	1	1	9	[663, 554]	-60	0	1	1	30	[274, 449]	-81	1	0	1	158	[870, 693]	-29	0	1	1	105	[647, 105]	24	11	129	118	170	136	73	9	30	158	105
25	8	collaborate	contingent	100.0	2032.96926437	677804.989128	669754.842366	678972.434693	682079.535608	686554.475239	None	4474.93963079	4	4	6	49	1	0	1	32	[638, 910]	17	0	1	1	166	[1336, 768]	63	0	1	1	142	[1015, 807]	87	0	1	1	176	[1456, 214]	53	1	0	1	132	[817, 772]	-83	0	1	1	76	[1018, 420]	-27	1	0	1	49	[308, 494]	0	1	0	1	15	[645, 221]	34	0	49	49	32	166	142	176	132	76	15
