trialnr	nstim	rewtype	rewamount	reward	total	fixonset	stimonset	maintenanceonset	probeonset	t1	rewardonset	RT	nfixself	nfixother	probedstim	response	self_fixated0	other_fixated0	rewarded0	ori0	XYloc0	error0	self_fixated1	other_fixated1	rewarded1	ori1	XYloc1	error1	self_fixated2	other_fixated2	rewarded2	ori2	XYloc2	error2	self_fixated3	other_fixated3	rewarded3	ori3	XYloc3	error3	self_fixated4	other_fixated4	rewarded4	ori4	XYloc4	error4	self_fixated5	other_fixated5	rewarded5	ori5	XYloc5	error5	self_fixated6	other_fixated6	rewarded6	ori6	XYloc6	error6	self_fixated7	other_fixated7	rewarded7	ori7	XYloc7	error7	E	X	T	NT0	NT1	NT2	NT3	NT4	NT5	NT6
1	8	collaborate	contingent	89.62	80.5743424159	21760.7877721	13844.3141778	23012.6326353	26136.2052099	33167.0964292	None	7030.89121932	3	5	3	68	1	0	1	82	[1156, 440]	-14	0	1	1	178	[659, 674]	70	0	1	1	127	[855, 942]	-59	1	0	1	60	[925, 224]	8	0	1	1	49	[168, 521]	19	0	1	1	96	[992, 762]	-28	1	0	1	149	[1476, 340]	-81	0	1	1	114	[1202, 737]	-46	8	68	60	82	178	127	49	96	149	114
2	8	collaborate	contingent	57.52	158.992964463	47546.5017698	39063.9556258	49835.2864161	52957.1681638	60037.9598505	None	7080.79168669	3	5	3	129	1	0	1	72	[478, 420]	57	0	1	1	0	[688, 860]	-51	0	1	1	136	[1319, 744]	-7	1	0	1	147	[450, 203]	-18	0	1	1	43	[1167, 916]	86	0	1	1	59	[1498, 504]	70	1	0	1	114	[274, 292]	15	0	1	1	12	[202, 758]	-63	-18	129	147	72	0	136	43	59	114	12
3	8	collaborate	contingent	89.62	242.886965957	76605.9035624	67186.4018377	77873.8470177	80997.2418227	88012.1850959	None	7014.94327318	4	4	1	104	0	1	1	52	[757, 671]	52	1	0	1	112	[637, 374]	-8	0	1	1	150	[633, 582]	-46	1	0	1	176	[1491, 392]	-72	1	0	1	31	[1132, 233]	73	1	0	1	82	[1051, 809]	22	0	1	1	133	[359, 505]	-29	0	1	1	62	[295, 685]	42	-8	104	112	52	150	176	31	82	133	62
4	8	collaborate	contingent	87.05	325.495967451	102124.47645	96528.7160162	103375.723495	106499.246587	113513.273889	None	7014.02730174	4	4	2	56	0	1	1	146	[559, 907]	90	0	1	1	134	[768, 706]	-78	1	0	1	47	[1320, 110]	9	1	0	1	13	[1357, 496]	43	1	0	1	114	[845, 127]	-58	0	1	1	94	[216, 779]	-38	0	1	1	75	[317, 277]	-19	1	0	1	159	[1146, 171]	77	9	56	47	146	134	13	114	94	75	159
5	8	collaborate	contingent	1.0	373.900605565	128527.397956	118656.799539	129829.67183	132952.687271	140033.56656	None	7080.8792886	4	4	4	171	1	0	1	175	[877, 139]	-4	0	1	1	48	[1085, 531]	-57	0	1	1	158	[348, 112]	13	0	1	1	65	[331, 863]	-74	1	0	1	77	[1377, 686]	-86	0	1	1	28	[549, 329]	-37	1	0	1	102	[989, 278]	69	1	0	1	147	[1495, 582]	24	-86	171	77	175	48	158	65	28	102	147
6	8	collaborate	contingent	89.62	468.625039467	155565.443942	146180.50282	156867.330022	159990.711632	167022.805453	None	7032.09382128	4	4	5	58	1	0	1	13	[232, 213]	45	1	0	1	145	[629, 229]	-87	0	1	1	78	[694, 713]	-20	0	1	1	23	[541, 796]	35	0	1	1	119	[1461, 820]	-61	1	0	1	66	[462, 505]	-8	0	1	1	0	[930, 760]	58	1	0	1	131	[1090, 292]	-73	-8	58	66	13	145	78	23	119	0	131
7	8	collaborate	contingent	99.32	568.285039467	182821.432119	171914.945143	184072.612087	187195.958143	194260.281037	None	7064.32289404	4	4	2	89	1	0	1	119	[1396, 556]	-30	0	1	1	43	[244, 644]	46	1	0	1	91	[743, 828]	-2	0	1	1	61	[414, 921]	28	0	1	1	170	[364, 116]	-81	1	0	1	15	[1014, 823]	74	0	1	1	0	[620, 565]	89	1	0	1	29	[1021, 571]	60	-2	89	91	119	43	61	170	15	0	29
8	8	collaborate	contingent	94.02	654.37904096	209257.577474	199337.989063	210493.568957	213616.101304	220631.03908	None	7014.93777515	4	4	3	84	0	1	1	47	[298, 702]	37	1	0	1	21	[1186, 615]	63	0	1	1	174	[775, 896]	90	1	0	1	90	[1504, 681]	-6	0	1	1	107	[524, 196]	-23	1	0	1	61	[1032, 410]	23	0	1	1	4	[701, 125]	80	1	0	1	78	[1350, 232]	6	-6	84	90	47	21	174	107	61	4	78
9	8	collaborate	contingent	81.3	744.687663008	236696.781564	226242.745994	237965.228273	241088.379332	248119.40287	None	7031.02353852	4	4	6	174	0	1	1	109	[543, 638]	65	1	0	1	71	[1127, 500]	-77	0	1	1	149	[501, 121]	25	0	1	1	31	[788, 824]	-37	0	1	1	47	[229, 785]	-53	1	0	1	132	[1226, 208]	42	1	0	1	5	[1137, 739]	-11	1	0	1	165	[941, 923]	9	-11	174	5	109	71	149	31	47	132	165
10	8	collaborate	contingent	98.47	843.157871473	261046.077139	252344.644976	262297.78895	265421.241667	272452.17907	None	7030.93740275	4	4	4	76	0	1	1	135	[1259, 650]	-59	0	1	1	153	[915, 837]	-77	1	0	1	67	[440, 861]	9	0	1	1	8	[1233, 906]	68	1	0	1	79	[212, 113]	-3	0	1	1	32	[1349, 209]	44	1	0	1	44	[507, 474]	32	1	0	1	57	[792, 351]	19	-3	76	79	135	153	67	8	32	44	57
11	8	collaborate	contingent	99.32	942.053079939	290856.521266	278547.657822	292108.187993	295231.703755	302312.778406	None	7081.07465186	4	4	3	0	1	0	1	65	[356, 540]	-65	0	1	1	39	[1473, 410]	-39	1	0	1	81	[601, 321]	-81	1	0	1	2	[419, 386]	-2	0	1	1	54	[1396, 887]	-54	0	1	1	113	[1266, 772]	67	0	1	1	145	[933, 921]	35	1	0	1	15	[341, 184]	-15	-2	0	2	65	39	81	54	113	145	15
12	8	collaborate	contingent	37.55	970.715241007	317109.837035	307139.027164	318361.394534	321484.924591	328517.375051	None	7032.45046002	4	4	4	129	0	1	1	54	[1090, 491]	75	1	0	1	111	[566, 490]	18	1	0	1	76	[306, 153]	53	0	1	1	135	[1317, 401]	-6	1	0	1	153	[641, 129]	-24	0	1	1	1	[674, 857]	-52	1	0	1	166	[488, 661]	-37	0	1	1	64	[406, 940]	65	-24	129	153	54	111	76	135	1	166	64
13	8	collaborate	contingent	94.02	1067.72524101	346318.722508	337684.209041	347554.684301	350677.282992	357741.683958	None	7064.40096604	4	4	4	51	1	0	1	108	[664, 513]	-57	1	0	1	37	[1334, 182]	14	0	1	1	86	[729, 182]	-35	0	1	1	12	[1107, 116]	39	1	0	1	57	[977, 429]	-6	0	1	1	98	[902, 712]	-47	0	1	1	157	[365, 428]	74	1	0	1	25	[1407, 337]	26	-6	51	57	108	37	86	12	98	157	25
14	8	collaborate	contingent	99.83	1165.54487912	371219.290307	362785.54979	372471.091919	375594.570661	382693.388548	None	7098.81788736	4	4	6	106	1	0	1	31	[1425, 397]	75	0	1	1	80	[592, 193]	26	0	1	1	59	[318, 891]	47	0	1	1	159	[597, 500]	-53	1	0	1	8	[1090, 412]	-82	0	1	1	129	[1116, 753]	-23	1	0	1	107	[1282, 333]	-1	1	0	1	169	[1365, 903]	-63	-1	106	107	31	80	59	159	8	129	169
15	8	collaborate	contingent	78.17	1231.63678228	398858.917673	390191.433266	400177.286474	403300.692275	410365.250485	None	7064.55820964	3	5	6	159	1	0	1	70	[311, 643]	89	0	1	1	33	[1115, 798]	-54	0	1	1	159	[1402, 444]	0	0	1	1	46	[1468, 932]	-67	1	0	1	9	[445, 379]	-30	0	1	1	122	[507, 571]	37	1	0	1	171	[1476, 634]	-12	0	1	1	133	[1120, 596]	26	-12	159	171	70	33	159	46	9	122	133
16	8	collaborate	contingent	87.05	1324.39699074	427232.709527	415892.818513	428467.958777	431591.217597	438638.936447	None	7047.71884992	4	4	0	121	1	0	1	112	[1009, 154]	9	1	0	1	27	[819, 179]	-86	0	1	1	52	[206, 153]	69	0	1	1	68	[984, 930]	53	1	0	1	151	[574, 192]	-30	0	1	1	99	[171, 378]	22	1	0	1	161	[1007, 432]	-40	0	1	1	178	[330, 356]	-57	9	121	112	27	52	68	151	99	161	178
17	8	collaborate	contingent	81.3	1412.05799487	450797.420399	443782.963151	452049.136608	455172.499158	462186.733185	None	7014.23402759	4	4	5	121	1	0	1	24	[603, 145]	-83	0	1	1	103	[277, 927]	18	1	0	1	78	[1022, 387]	43	0	1	1	48	[424, 396]	73	1	0	1	92	[987, 223]	29	1	0	1	132	[1196, 499]	-11	0	1	1	159	[400, 662]	-38	0	1	1	60	[600, 672]	61	-11	121	132	24	103	78	48	92	159	60
18	8	collaborate	contingent	91.95	1505.93763299	483797.736719	467464.637968	485066.009689	488189.381402	495220.341164	None	7030.9597614	4	4	7	51	0	1	1	69	[601, 376]	-18	1	0	1	109	[1454, 387]	-58	0	1	1	123	[636, 632]	-72	1	0	1	166	[1188, 575]	65	1	0	1	179	[1457, 632]	52	0	1	1	28	[201, 339]	23	0	1	1	139	[1157, 274]	-88	1	0	1	58	[832, 944]	-7	-7	51	58	69	109	123	166	179	28	139
19	8	collaborate	contingent	91.95	1595.43990989	511353.435956	500865.111385	512605.208978	515728.588755	522829.64324	None	7101.05448509	4	4	3	34	0	1	1	126	[258, 740]	88	1	0	1	143	[757, 296]	71	1	0	1	46	[1052, 202]	-12	1	0	1	27	[1027, 464]	7	0	1	1	173	[232, 477]	41	0	1	1	13	[679, 802]	21	0	1	1	100	[628, 478]	-66	1	0	1	61	[1426, 676]	-27	7	34	27	126	143	46	173	13	100	61
20	8	collaborate	contingent	87.05	1640.38416969	535920.495951	527753.454869	537105.052284	540228.281782	547260.902681	None	7032.62089888	3	5	1	39	1	0	1	22	[1196, 910]	17	1	0	1	48	[1347, 845]	-9	0	1	1	80	[973, 787]	-41	1	0	1	154	[1177, 473]	65	0	1	1	133	[419, 942]	86	0	1	1	63	[506, 262]	-24	0	1	1	165	[570, 612]	54	0	1	1	122	[172, 886]	-83	-9	39	48	22	80	154	133	63	165	122
21	8	collaborate	contingent	98.47	1694.18941298	569940.049871	552469.783755	571207.361053	574330.692447	581344.783526	None	7014.09107886	4	4	0	77	1	0	1	74	[455, 667]	3	1	0	1	173	[591, 461]	84	0	1	1	162	[1408, 867]	-85	1	0	1	146	[569, 825]	-69	1	0	1	33	[168, 708]	44	0	1	1	110	[1479, 542]	-33	0	1	1	12	[667, 699]	65	0	1	1	97	[385, 381]	-20	3	77	74	173	162	146	33	110	12	97
22	8	collaborate	contingent	84.27	1778.46029271	596860.028275	586221.636866	598112.067401	601235.197201	608266.217808	None	7031.02060624	4	4	3	84	0	1	1	104	[921, 686]	-20	1	0	1	89	[453, 912]	-5	0	1	1	43	[1286, 284]	41	1	0	1	74	[589, 572]	10	0	1	1	129	[1004, 832]	-45	1	0	1	163	[307, 866]	-79	0	1	1	29	[1368, 931]	55	1	0	1	1	[410, 122]	83	10	84	74	104	89	43	129	163	29	1
23	8	collaborate	contingent	78.17	1853.30963512	624950.187868	613376.576789	626218.971788	629342.262497	636356.441911	None	7014.17941384	4	4	6	134	0	1	1	123	[1032, 876]	11	1	0	1	112	[372, 326]	22	0	1	1	79	[219, 806]	55	1	0	1	34	[947, 161]	-80	0	1	1	160	[1461, 313]	-26	1	0	1	68	[385, 590]	66	1	0	1	146	[696, 235]	-12	0	1	1	55	[742, 899]	79	-12	134	146	123	112	79	34	160	68	55
24	8	collaborate	contingent	99.83	1943.87494302	658401.825932	641199.806763	659670.020097	662794.424707	669874.478924	None	7080.05421789	4	4	5	31	0	1	1	170	[1453, 651]	41	0	1	1	136	[1113, 646]	75	0	1	1	118	[1233, 116]	-87	1	0	1	73	[477, 113]	-42	1	0	1	9	[663, 554]	22	1	0	1	30	[274, 449]	1	0	1	1	158	[870, 693]	53	1	0	1	105	[647, 105]	-74	1	31	30	170	136	118	73	9	158	105
25	8	collaborate	contingent	78.17	2032.95994302	682650.89759	674751.087418	683985.975631	687109.238483	694157.040536	None	7047.8020534	4	4	2	154	0	1	1	32	[638, 910]	-58	1	0	1	166	[1336, 768]	-12	1	0	1	142	[1015, 807]	12	1	0	1	176	[1456, 214]	-22	0	1	1	132	[817, 772]	22	1	0	1	76	[1018, 420]	78	0	1	1	49	[308, 494]	-75	0	1	1	15	[645, 221]	-41	12	154	142	32	166	176	132	76	49	15
