trialnr	nstim	rewtype	rewamount	reward	total	fixonset	stimonset	maintenanceonset	probeonset	t1	rewardonset	RT	nfixself	nfixother	probedstim	response	self_fixated0	other_fixated0	rewarded0	ori0	XYloc0	error0	self_fixated1	other_fixated1	rewarded1	ori1	XYloc1	error1	self_fixated2	other_fixated2	rewarded2	ori2	XYloc2	error2	self_fixated3	other_fixated3	rewarded3	ori3	XYloc3	error3	self_fixated4	other_fixated4	rewarded4	ori4	XYloc4	error4	self_fixated5	other_fixated5	rewarded5	ori5	XYloc5	error5	self_fixated6	other_fixated6	rewarded6	ori6	XYloc6	error6	self_fixated7	other_fixated7	rewarded7	ori7	XYloc7	error7	E	X	T	NT0	NT1	NT2	NT3	NT4	NT5	NT6
1	8	collaborate	contingent	10.73	11.4401433306	15571.9727695	10111.0432616	17691.8227398	20798.0090615	24205.0852173	None	3407.07615584	4	4	1	144	0	1	1	3	[404, 668]	-39	1	0	1	125	[911, 111]	19	0	1	1	168	[243, 273]	-24	1	0	1	26	[1203, 273]	-62	0	1	1	88	[260, 483]	56	0	1	1	107	[580, 395]	37	1	0	1	148	[1418, 916]	-4	1	0	1	137	[1491, 109]	7	19	144	125	3	168	26	88	107	148	137
2	8	collaborate	contingent	4.71	21.9110387098	35911.6789046	31686.2836803	37948.7156837	41054.9119018	44093.5119477	None	3038.60004596	4	4	2	146	1	0	1	62	[1080, 294]	84	0	1	1	77	[617, 672]	69	1	0	1	117	[1258, 190]	29	1	0	1	97	[1429, 428]	49	0	1	1	0	[761, 921]	-34	1	0	1	33	[1017, 491]	-67	0	1	1	156	[1040, 891]	-10	0	1	1	20	[682, 358]	-54	29	146	117	62	77	97	0	33	156	20
3	8	collaborate	contingent	0.49	22.1810468903	56668.7212111	51308.6922402	58722.130324	61828.261299	65786.1634206	None	3957.90212153	4	4	7	17	0	1	1	40	[663, 792]	-23	0	1	1	134	[183, 821]	63	1	0	1	0	[380, 454]	17	1	0	1	29	[1102, 512]	-12	1	0	1	53	[1181, 661]	-36	0	1	1	12	[420, 892]	5	0	1	1	91	[287, 631]	-74	1	0	1	64	[803, 290]	-47	-47	17	64	40	134	0	29	53	12	91
4	8	collaborate	contingent	18.8	37.3007036781	77577.6184903	71814.2714352	78059.7215589	81165.9676255	85107.6535566	None	3941.68593107	2	6	4	2	0	1	1	60	[549, 354]	-58	1	0	1	151	[339, 336]	31	0	1	1	45	[228, 748]	-43	0	1	1	78	[1266, 694]	-76	1	0	1	8	[439, 153]	-6	0	1	1	103	[581, 937]	79	0	1	1	176	[1067, 127]	6	0	1	1	128	[1430, 105]	54	-6	2	8	60	151	45	78	103	176	128
5	8	collaborate	contingent	0.06	37.3557148281	93240.5217096	91001.976717	94759.0985613	97865.4626519	101038.554962	None	3173.09231045	3	5	1	18	0	1	1	3	[1261, 493]	15	1	0	1	87	[755, 374]	-69	0	1	1	109	[1276, 158]	89	1	0	1	17	[614, 257]	1	0	1	1	31	[1415, 433]	-13	0	1	1	144	[1173, 323]	54	0	1	1	63	[1361, 853]	-45	1	0	1	124	[429, 755]	74	-69	18	87	3	109	17	31	144	63	124
6	8	collaborate	contingent	10.04	43.3345735179	112143.928678	107183.466684	113762.822912	116869.375401	119691.651935	None	2822.27653439	4	4	7	171	1	0	1	166	[359, 669]	5	1	0	1	40	[553, 474]	-49	0	1	1	115	[1331, 710]	56	0	1	1	133	[1082, 870]	38	0	1	1	100	[1305, 348]	71	0	1	1	57	[1481, 809]	-66	1	0	1	179	[170, 358]	-8	1	0	1	151	[574, 670]	20	20	171	151	166	40	115	133	100	57	179
7	8	collaborate	contingent	6.24	46.4795846679	136876.129153	132766.913429	137175.374717	140282.501931	142636.255476	None	2353.75354484	4	4	6	146	0	1	1	138	[1269, 274]	8	0	1	1	58	[742, 684]	88	1	0	1	170	[197, 708]	-24	0	1	1	43	[1171, 525]	-77	1	0	1	150	[590, 143]	-4	0	1	1	103	[1463, 195]	43	1	0	1	120	[746, 361]	26	1	0	1	12	[289, 369]	-46	26	146	120	138	58	170	43	150	103	12
8	8	collaborate	contingent	19.86	56.4355728523	155261.704434	151737.422116	157281.43605	160387.918898	162876.002333	None	2488.08343483	4	4	0	178	1	0	1	176	[452, 296]	2	1	0	1	117	[646, 436]	61	1	0	1	103	[302, 409]	75	0	1	1	157	[1092, 274]	21	0	1	1	55	[710, 893]	-57	0	1	1	71	[1319, 123]	-73	1	0	1	35	[405, 546]	-37	0	1	1	90	[1046, 596]	88	2	178	176	117	103	157	55	71	35	90
9	8	collaborate	contingent	19.69	72.7111906638	175451.330719	172044.44846	179725.517463	182832.42659	185136.426097	None	2303.99950738	4	4	3	169	1	0	1	51	[1000, 617]	-62	0	1	1	23	[937, 368]	-34	0	1	1	123	[1269, 217]	46	1	0	1	172	[293, 281]	-3	1	0	1	136	[557, 674]	33	0	1	1	66	[1026, 140]	-77	1	0	1	36	[257, 884]	-47	0	1	1	83	[1332, 655]	86	-3	169	172	51	23	123	136	66	36	83
10	8	collaborate	contingent	0.09	72.7895329062	195790.951086	191248.140482	198896.242332	202019.221768	206411.208458	None	4391.98669042	4	4	7	48	0	1	1	60	[844, 197]	-12	1	0	1	49	[735, 863]	-1	1	0	1	149	[1095, 785]	79	1	0	1	31	[1110, 627]	17	0	1	1	6	[1501, 158]	42	0	1	1	109	[1363, 648]	-61	0	1	1	94	[183, 392]	-46	1	0	1	168	[205, 815]	60	60	48	168	60	49	149	31	6	109	94
11	8	collaborate	contingent	11.44	88.4407400763	216982.499841	214076.305016	218601.409836	221708.04003	224847.579832	None	3139.53980209	4	4	1	72	1	0	1	9	[800, 870]	63	1	0	1	54	[440, 631]	18	0	1	1	158	[1163, 319]	-86	0	1	1	93	[965, 237]	-21	0	1	1	64	[1404, 534]	8	1	0	1	119	[1131, 913]	-47	0	1	1	140	[1391, 350]	-68	1	0	1	35	[473, 792]	37	18	72	54	9	158	93	64	119	140	35
12	8	collaborate	contingent	4.25	92.6929487411	235202.771656	231527.907337	236954.203428	240060.476252	242114.602305	None	2054.12605319	3	5	1	153	1	0	1	20	[256, 750]	-47	1	0	1	123	[551, 436]	30	0	1	1	90	[1422, 106]	63	0	1	1	145	[1150, 203]	8	0	1	1	169	[858, 346]	-16	1	0	1	45	[378, 905]	-72	0	1	1	73	[946, 739]	80	0	1	1	2	[1142, 723]	-29	30	153	123	20	90	145	169	45	73	2
13	8	collaborate	contingent	18.38	109.99884412	251199.515002	248460.047261	254137.764679	257260.853709	259281.414058	None	2020.56034962	3	5	2	148	0	1	1	72	[1027, 366]	76	0	1	1	39	[1280, 328]	-71	1	0	1	141	[284, 756]	7	0	1	1	127	[1186, 483]	21	1	0	1	151	[389, 575]	-3	0	1	1	26	[1000, 629]	-58	0	1	1	98	[1304, 738]	50	1	0	1	52	[477, 422]	-84	7	148	141	72	39	127	151	26	98	52
14	8	collaborate	contingent	0.12	110.08648421	268367.410963	265460.063022	270302.685484	273409.192889	275245.873104	None	1836.68021498	4	4	1	116	1	0	1	126	[368, 272]	-10	1	0	1	59	[780, 719]	57	0	1	1	75	[1252, 729]	41	1	0	1	3	[199, 633]	-67	1	0	1	42	[630, 636]	74	0	1	1	144	[839, 269]	-28	0	1	1	13	[172, 158]	-77	0	1	1	32	[1428, 838]	84	57	116	59	126	75	3	42	144	13	32
15	8	collaborate	contingent	19.46	122.938787387	286719.356029	283662.358183	287002.220462	290109.173572	294132.889779	None	4023.71620604	4	4	7	96	0	1	1	37	[984, 375]	59	0	1	1	80	[1228, 902]	16	0	1	1	56	[1417, 243]	40	1	0	1	129	[323, 868]	-33	1	0	1	166	[1150, 672]	-70	0	1	1	8	[1044, 144]	88	1	0	1	144	[569, 602]	-48	1	0	1	92	[287, 235]	4	4	96	92	37	80	56	129	166	8	144
16	8	collaborate	contingent	0.11	123.018802532	303919.791032	299844.314015	304135.607994	307225.190332	309396.286132	None	2171.09580059	3	5	1	148	0	1	1	116	[604, 318]	32	1	0	1	26	[414, 629]	-58	0	1	1	175	[1209, 466]	-27	0	1	1	43	[862, 181]	-75	1	0	1	11	[189, 844]	-43	1	0	1	79	[183, 603]	69	0	1	1	94	[1475, 749]	54	0	1	1	144	[735, 654]	4	-58	148	26	116	175	43	11	79	94	144
17	8	collaborate	contingent	19.46	142.731559666	320803.013715	316426.602513	322337.956669	325427.481828	328166.468311	None	2738.9864826	4	4	2	25	0	1	1	111	[1344, 771]	-86	1	0	1	98	[605, 936]	-73	1	0	1	21	[881, 895]	4	0	1	1	143	[842, 726]	62	0	1	1	174	[616, 229]	31	0	1	1	52	[627, 572]	-27	1	0	1	31	[520, 713]	-6	1	0	1	63	[187, 574]	-38	4	25	21	111	98	143	174	52	31	63
18	8	collaborate	contingent	19.86	152.686574811	339355.560923	336616.000815	341259.330027	344364.647664	347772.22817	None	3407.58050641	4	4	4	20	0	1	1	159	[1482, 532]	41	0	1	1	55	[1315, 341]	-35	1	0	1	178	[665, 465]	22	1	0	1	107	[737, 931]	-87	1	0	1	18	[694, 694]	2	0	1	1	40	[725, 168]	-20	1	0	1	124	[1007, 808]	76	0	1	1	135	[1209, 142]	65	2	20	18	159	55	178	107	40	124	135
19	8	collaborate	contingent	12.86	169.099331946	358442.904473	355102.270641	359560.760499	362667.857657	364788.110815	None	2120.2531576	3	5	3	39	0	1	1	89	[1268, 210]	-50	0	1	1	23	[721, 397]	16	0	1	1	140	[552, 461]	79	1	0	1	55	[200, 837]	-16	1	0	1	154	[268, 387]	65	0	1	1	164	[1280, 761]	55	1	0	1	71	[255, 550]	-32	0	1	1	103	[589, 723]	-64	-16	39	55	89	23	140	154	164	71	103
20	8	collaborate	contingent	19.46	180.204301397	374340.874645	371083.786705	374656.986263	377763.349987	379935.148067	None	2171.79807944	4	4	0	35	1	0	1	39	[770, 687]	-4	1	0	1	23	[383, 351]	12	0	1	1	0	[1255, 260]	35	0	1	1	170	[1257, 661]	45	0	1	1	120	[889, 861]	-85	0	1	1	141	[1351, 473]	74	1	0	1	77	[258, 183]	-42	1	0	1	67	[765, 374]	-32	-4	35	39	23	0	170	120	141	77	67
21	8	collaborate	contingent	14.26	188.077215086	393077.949654	389637.067715	393360.614692	396483.40463	399455.804265	None	2972.39963479	4	4	4	165	0	1	1	146	[1074, 419]	19	1	0	1	47	[1179, 872]	-62	0	1	1	101	[821, 206]	64	1	0	1	9	[1274, 599]	-24	1	0	1	179	[326, 717]	-14	0	1	1	115	[1454, 146]	50	1	0	1	167	[661, 898]	-2	0	1	1	131	[1198, 265]	34	-14	165	179	146	47	101	9	115	167	131
22	8	collaborate	contingent	14.94	195.790551692	408407.306339	405517.870174	409274.882792	412381.284269	418359.438118	None	5978.15384965	4	4	5	39	1	0	1	7	[908, 819]	32	1	0	1	153	[373, 124]	66	0	1	1	65	[1416, 802]	-26	1	0	1	103	[222, 336]	-64	0	1	1	138	[1441, 262]	81	1	0	1	26	[680, 676]	13	0	1	1	93	[653, 135]	-54	0	1	1	172	[1010, 234]	47	13	39	26	7	153	65	103	138	93	172
23	8	collaborate	contingent	0.05	195.972522101	427427.993876	425089.300107	427877.816675	430984.415714	434892.624276	None	3908.20856216	3	5	0	159	1	0	1	52	[344, 746]	-73	1	0	1	97	[733, 747]	62	1	0	1	7	[950, 940]	-28	0	1	1	79	[1420, 218]	80	0	1	1	69	[1165, 145]	90	0	1	1	28	[1350, 720]	-49	0	1	1	170	[1463, 401]	-11	0	1	1	38	[719, 261]	-59	-73	159	52	97	7	79	69	28	170	38
24	8	collaborate	contingent	17.91	205.496839616	445312.867427	441722.201798	445595.902298	448702.343361	451891.862252	None	3189.51889134	4	4	1	107	1	0	1	156	[655, 780]	-49	1	0	1	99	[1267, 926]	8	0	1	1	118	[1009, 500]	-11	1	0	1	22	[951, 870]	85	0	1	1	69	[1471, 248]	38	0	1	1	177	[921, 164]	-70	0	1	1	136	[1408, 501]	-29	1	0	1	53	[397, 817]	54	8	107	99	156	118	22	69	177	136	53
25	8	collaborate	contingent	0.05	205.546994539	460442.749796	457302.247109	460942.583572	464048.908077	465819.160264	None	1770.25218628	4	4	7	125	1	0	1	151	[311, 191]	-26	0	1	1	77	[595, 117]	48	0	1	1	168	[1136, 227]	-43	0	1	1	134	[1073, 440]	-9	1	0	1	6	[653, 826]	-61	0	1	1	23	[1380, 720]	-78	1	0	1	99	[294, 793]	26	1	0	1	44	[202, 364]	81	81	125	44	151	77	168	134	6	23	99
26	8	collaborate	contingent	19.86	222.948124429	477225.531208	474085.342641	478710.803695	481819.807929	483436.847134	None	1617.03920556	4	4	4	64	0	1	1	51	[1175, 318]	13	1	0	1	173	[1003, 939]	71	0	1	1	17	[994, 219]	47	0	1	1	114	[704, 123]	-50	1	0	1	62	[573, 608]	2	1	0	1	81	[267, 482]	-17	1	0	1	125	[1506, 861]	-61	0	1	1	162	[1400, 524]	82	2	64	62	51	173	17	114	81	125	162
27	8	collaborate	contingent	5.7	225.823474384	494159.495371	491803.230703	494641.953244	497748.404203	501255.138713	None	3506.73450964	4	4	6	55	1	0	1	89	[653, 551]	-34	0	1	1	129	[1432, 381]	-74	0	1	1	141	[597, 196]	-86	0	1	1	16	[1185, 414]	39	1	0	1	160	[893, 745]	75	1	0	1	61	[403, 742]	-6	1	0	1	28	[544, 798]	27	0	1	1	170	[420, 282]	65	27	55	28	89	129	141	16	160	61	170
28	8	collaborate	contingent	12.86	236.929585703	509640.63079	506782.505046	510573.040116	513679.509768	515850.542525	None	2171.03275676	4	4	7	65	0	1	1	19	[1064, 166]	46	0	1	1	142	[443, 236]	-77	1	0	1	167	[281, 612]	78	1	0	1	31	[664, 786]	34	0	1	1	56	[588, 184]	9	0	1	1	94	[786, 273]	-29	1	0	1	71	[193, 842]	-6	1	0	1	81	[386, 765]	-16	-16	65	81	19	142	167	31	56	94	71
29	8	collaborate	contingent	0.07	236.990041712	525102.976585	521344.59533	525385.407041	528492.381044	530713.156842	None	2220.77579821	4	4	5	117	1	0	1	14	[883, 734]	-77	1	0	1	30	[190, 237]	87	0	1	1	131	[687, 322]	-14	0	1	1	78	[1269, 306]	39	0	1	1	2	[1483, 220]	-65	1	0	1	54	[1360, 769]	63	0	1	1	108	[1104, 379]	9	1	0	1	44	[524, 780]	73	63	117	54	14	30	131	78	2	108	44
30	8	collaborate	contingent	0.05	242.381584318	539632.050599	536674.587952	540114.362592	543220.562476	544857.210509	None	1636.64803331	3	5	5	41	0	1	1	84	[1137, 172]	-43	1	0	1	155	[1036, 911]	66	0	1	1	68	[634, 419]	-27	0	1	1	103	[1048, 570]	-62	0	1	1	32	[449, 172]	9	1	0	1	136	[615, 862]	85	0	1	1	170	[309, 312]	51	1	0	1	11	[1210, 686]	30	85	41	136	84	155	68	103	32	170	11
