trialnr	nstim	fixonset	stimonset	maintenanceonset	probeonset	RT	response	stimx0	stimy0	stimori0	stimerror0	stimx1	stimy1	stimori1	stimerror1	stimx2	stimy2	stimori2	stimerror2	stimx3	stimy3	stimori3	stimerror3	E	X	T	NT0	NT1	NT2
0	2	3802.18177926	5205.04744465	10216.0050905	13238.8649499	45911.3649426	27	319	570	34	-7	631	539	49	-22	nan	nan	nan	nan	nan	nan	nan	nan	-7	27	34	49	nan	nan
1	2	59216.005457	60652.1828056	65662.5910113	68685.307921	7899.79151333	146	1478	686	99	47	1305	500	147	-1	nan	nan	nan	nan	nan	nan	nan	nan	-1	146	147	99	nan	nan
2	2	76668.4090649	78054.8344129	83064.9054039	86087.5163842	5478.0949714	152	1409	870	141	11	1055	131	35	-63	nan	nan	nan	nan	nan	nan	nan	nan	11	152	141	35	nan	nan
3	2	91615.4901783	93001.7656123	98011.813878	101034.682901	4576.20979447	25	196	903	44	-19	453	511	34	-9	nan	nan	nan	nan	nan	nan	nan	nan	-9	25	34	44	nan	nan
4	4	105694.936501	106930.036742	111940.222093	114963.091848	4676.5168798	160	283	318	21	-41	1024	903	140	20	314	574	118	42	848	244	157	3	3	160	157	21	140	118
5	4	119723.35234	120791.786402	125802.021969	128824.688296	5578.9078788	153	508	755	96	57	1457	448	11	-38	1159	813	74	79	761	475	147	6	6	153	147	96	11	74
6	4	134453.41232	135738.820599	140749.61147	143772.05201	4108.46145049	12	909	753	94	-82	1459	468	172	20	1431	616	75	-63	984	419	13	-1	-1	12	13	94	172	75
7	2	147947.040061	149283.100191	154293.315598	157316.681646	4425.27211762	0	548	205	32	-32	279	251	179	1	nan	nan	nan	nan	nan	nan	nan	nan	1	0	179	32	nan	nan
8	4	161825.502743	163045.471939	168054.702826	171077.78664	7331.46887801	152	343	547	80	72	561	340	125	27	270	835	57	-85	278	126	170	-18	27	152	125	80	57	170
9	4	178459.678282	179812.580822	184822.685168	187845.11911	2539.28881415	158	580	244	143	15	605	614	37	-59	794	823	66	-88	180	224	169	-11	15	158	143	37	66	169
10	4	190467.917684	191686.481208	196696.672057	199719.372839	7882.9769609	26	1324	225	135	71	1085	221	158	48	435	816	6	20	431	207	80	-54	-54	26	80	135	158	6
11	2	207668.954107	208687.775453	213697.89666	216720.907533	4526.37422331	37	496	841	27	10	722	425	87	-50	nan	nan	nan	nan	nan	nan	nan	nan	10	37	27	87	nan	nan
12	4	221297.154348	222348.845699	227359.274431	230382.069413	7381.81283703	177	1500	548	1	-4	1117	532	132	45	582	526	18	-21	870	740	49	-52	-4	177	1	132	18	49
13	4	237830.846863	239032.905926	244043.229095	247066.020412	2305.4402998	14	883	679	15	-1	172	869	28	-14	1306	454	107	87	308	634	128	66	-1	14	15	28	107	128
14	4	249437.68895	250623.315759	255633.504042	258656.444173	3340.27897921	81	343	789	148	-67	1475	687	81	0	1267	193	106	-25	1404	477	61	20	0	81	81	148	106	61
15	2	262063.24059	263098.821508	268108.903495	271131.830797	3323.62533685	70	1267	488	74	-4	1169	302	152	-82	nan	nan	nan	nan	nan	nan	nan	nan	-4	70	74	152	nan	nan
16	2	274539.241897	275807.919195	280818.136068	283841.510179	4776.09528808	66	924	745	71	-5	697	654	179	67	nan	nan	nan	nan	nan	nan	nan	nan	-5	66	71	179	nan	nan
17	2	288684.250826	289769.745022	294779.9476	297802.892496	5562.52730706	65	982	452	139	-74	446	378	42	23	nan	nan	nan	nan	nan	nan	nan	nan	-74	65	139	42	nan	nan
18	2	303430.982043	304766.986459	309777.18977	312800.094347	3323.52637166	136	994	164	74	62	1352	305	141	-5	nan	nan	nan	nan	nan	nan	nan	nan	-5	136	141	74	nan	nan
19	4	316190.412692	317493.548936	322503.197675	325526.16603	3674.40085741	67	659	482	72	-5	1113	240	128	-61	422	509	143	-76	572	913	105	-38	-5	67	72	128	143	105
20	2	329283.720739	330653.135804	335663.397761	338686.273381	5896.11037478	37	424	728	45	-8	390	261	112	-75	nan	nan	nan	nan	nan	nan	nan	nan	-8	37	45	112	nan	nan
21	2	344665.255374	345800.752649	350810.889983	353834.011917	6179.18124265	47	340	838	45	2	292	250	155	72	nan	nan	nan	nan	nan	nan	nan	nan	2	47	45	155	nan	nan
22	2	360080.305487	361499.469253	366510.471617	369532.512264	5477.96851587	114	986	569	139	-25	850	926	109	5	nan	nan	nan	nan	nan	nan	nan	nan	5	114	109	139	nan	nan
23	2	375077.808632	376296.382786	381306.681763	384329.44449	5110.54814986	107	494	323	114	-7	681	649	132	-25	nan	nan	nan	nan	nan	nan	nan	nan	-7	107	114	132	nan	nan
24	4	389489.983623	390842.600629	395852.805407	398875.884822	9319.19792745	42	210	573	21	21	555	718	177	45	799	851	41	1	1190	355	138	84	21	42	21	177	41	138
25	2	408278.290483	409514.076882	414524.437071	417547.096801	6047.04438625	123	321	144	32	-89	1183	610	129	-6	nan	nan	nan	nan	nan	nan	nan	nan	-6	123	129	32	nan	nan
26	2	423659.7804	424761.879855	429772.344874	432795.059584	2689.01984875	89	943	607	88	1	176	351	71	18	nan	nan	nan	nan	nan	nan	nan	nan	1	89	88	71	nan	nan
27	2	435517.155799	436987.218096	441997.251333	445019.901533	3039.62456272	49	380	680	49	0	234	568	105	-56	nan	nan	nan	nan	nan	nan	nan	nan	0	49	49	105	nan	nan
28	4	448126.158259	449162.089588	454171.859651	457194.731973	6247.1487029	84	984	193	139	-55	285	726	62	22	625	338	159	-75	1457	868	101	-17	22	84	62	139	159	101
29	2	463508.077759	464960.654373	469970.772647	472994.453917	4208.08787522	81	1322	764	87	-6	521	491	74	7	nan	nan	nan	nan	nan	nan	nan	nan	7	81	74	87	nan	nan
30	4	477285.780315	478538.283768	483548.470218	486571.472661	6129.36473145	76	1048	511	48	28	203	776	64	12	938	731	104	-28	642	106	150	-74	12	76	64	48	104	150
31	4	492784.191007	493886.365236	498896.5121	501919.310015	1937.71717361	90	1049	810	96	-6	668	924	111	-21	1465	193	21	69	420	291	130	-40	-6	90	96	111	21	130
32	4	503924.234449	505109.175099	510119.345789	513142.136739	2321.72520519	106	199	234	36	70	890	811	80	26	733	297	56	50	744	852	104	2	2	106	104	36	80	56
33	4	515530.449756	516900.608892	521910.839694	524933.074973	2905.75911433	113	1429	538	16	-83	932	287	82	31	1442	332	172	-59	1055	420	135	-22	-22	113	135	16	82	172
34	4	527905.668946	529308.629178	534318.883805	537341.719839	3557.52846532	76	650	458	14	62	680	138	2	74	1142	796	84	-8	1168	269	163	-87	-8	76	84	14	2	163
35	4	540982.539975	542385.209542	547395.395626	550418.303502	8601.27034651	23	1332	695	39	-16	326	599	68	-45	241	917	139	64	1193	875	92	-69	-16	23	39	68	139	92
36	2	559086.108513	560522.344507	565532.446654	568556.119861	4307.99726709	82	178	729	152	-70	487	838	83	-1	nan	nan	nan	nan	nan	nan	nan	nan	-1	82	83	152	nan	nan
37	4	572931.33062	574049.800384	579060.962557	582083.012735	3156.45297028	139	675	277	33	-74	808	672	148	-9	1319	356	113	26	831	106	101	38	-9	139	148	33	113	101
38	4	585306.233121	586709.107217	591719.953435	594743.001328	3873.84467303	25	1511	620	17	8	658	772	138	67	1260	765	71	-46	951	459	156	49	49	25	156	17	138	71
39	4	598700.098819	600119.792598	605129.877518	608153.585546	4141.23249049	135	1303	416	143	-8	1221	138	30	-75	413	553	164	-29	721	935	65	70	-29	135	164	143	30	65
40	2	612328.646171	613714.104592	618724.338693	621747.528436	2972.90846233	144	242	770	92	52	584	139	149	-5	nan	nan	nan	nan	nan	nan	nan	nan	-5	144	149	92	nan	nan
41	4	624786.655974	626172.881192	631183.404857	634205.850162	3641.14928642	83	767	339	111	-28	599	110	78	5	778	106	28	55	239	367	88	-5	-5	83	88	111	78	28
42	4	637913.517619	639399.775752	644409.989693	647432.865314	4209.81536761	34	291	187	34	0	171	571	88	-54	1392	728	162	52	344	467	59	-25	0	34	34	88	162	59
43	4	651709.184923	652810.4626	657820.871172	660843.516607	4894.39717737	84	1452	253	125	-41	553	626	24	60	1091	907	64	20	883	700	91	-7	-7	84	91	125	24	64
44	4	665820.455518	666989.569069	671999.805368	675023.201106	6763.54650191	100	1255	630	34	66	787	310	109	-9	400	492	141	-41	416	669	4	-84	-9	100	109	34	141	4
45	4	681854.369057	682905.275285	687915.495823	690939.10965	6713.15415991	46	787	441	78	-32	499	151	161	65	1092	274	40	6	914	860	13	33	6	46	40	78	161	13
46	2	697718.812403	699054.821218	704065.038457	707087.967959	2939.49341552	166	922	771	173	-7	176	650	99	67	nan	nan	nan	nan	nan	nan	nan	nan	-7	166	173	99	nan	nan
47	4	710094.075211	711313.862971	716323.693879	719346.391729	5160.73046574	146	545	896	68	78	733	704	111	35	406	564	97	49	1136	298	168	-22	-22	146	168	68	111	97
48	2	724557.0505	725609.978917	730619.285677	733642.278956	1889.14395843	79	355	109	117	-38	1090	180	80	-1	nan	nan	nan	nan	nan	nan	nan	nan	-1	79	80	117	nan	nan
49	2	735646.158391	736715.337625	741725.517478	744748.154849	5411.67906542	173	576	586	174	-1	568	433	67	-74	nan	nan	nan	nan	nan	nan	nan	nan	-1	173	174	67	nan	nan
50	4	750242.785071	751712.969058	756722.676077	759745.326277	11640.5782206	169	898	636	118	51	620	698	86	83	917	909	54	-65	920	111	11	-22	-22	169	11	118	86	54
51	2	771452.646989	772872.178759	777882.371441	780906.062241	3723.39339176	1	1157	247	171	10	447	565	1	0	nan	nan	nan	nan	nan	nan	nan	nan	0	1	1	171	nan	nan
52	2	784696.31285	786032.345123	791042.596084	794065.577268	7215.07115231	11	959	513	132	59	504	789	26	-15	nan	nan	nan	nan	nan	nan	nan	nan	-15	11	26	132	nan	nan
53	2	801347.066159	802499.237601	807509.450443	810532.386908	6880.86680312	78	1484	121	138	-60	1098	510	81	-3	nan	nan	nan	nan	nan	nan	nan	nan	-3	78	81	138	nan	nan
54	2	817480.386565	818782.441889	823792.680754	826815.678799	3423.87670843	77	1223	898	19	58	977	666	84	-7	nan	nan	nan	nan	nan	nan	nan	nan	-7	77	84	19	nan	nan
55	4	830289.501773	831558.960528	836568.736456	839591.578356	4609.81250861	20	189	860	7	13	261	143	95	-75	652	914	141	59	557	296	23	-3	-3	20	23	7	95	141
56	4	844267.82473	845704.274783	850714.588056	853737.300933	4309.82409121	123	849	171	103	20	669	499	42	81	734	796	140	-17	202	434	62	61	-17	123	140	103	42	62
57	4	858112.785496	859148.319131	864158.386457	867181.268675	2639.17438106	115	778	455	147	-32	1427	351	131	-16	1512	540	42	73	562	149	91	24	-16	115	131	147	42	91
58	4	869903.826361	871022.390325	876032.795965	879055.440666	4092.46464377	26	857	420	55	-29	338	609	172	34	1289	522	144	62	1472	235	39	-13	-13	26	39	55	172	144
59	2	883214.049978	884683.745371	889693.94355	892716.744031	9302.62932185	58	1110	823	40	18	689	451	77	-19	nan	nan	nan	nan	nan	nan	nan	nan	-19	58	77	40	nan	nan
60	4	902085.84094	903439.665688	908449.643945	911471.822411	2839.34650719	32	758	293	161	51	1253	502	83	-51	474	293	13	19	1044	475	38	-6	19	32	13	161	83	38
61	2	914377.556234	915430.565656	920440.159048	923462.889886	3941.54859264	0	818	418	3	-3	1069	662	105	75	nan	nan	nan	nan	nan	nan	nan	nan	-3	0	3	105	nan	nan
62	4	927471.623381	928489.651173	933500.604054	936522.884051	11590.5212607	17	982	388	11	6	366	126	60	-43	786	347	127	70	1261	741	177	20	6	17	11	60	127	177
63	2	948179.911019	949465.762809	954476.00424	957499.02281	9302.18727733	155	998	215	155	0	1006	833	171	-16	nan	nan	nan	nan	nan	nan	nan	nan	0	155	155	171	nan	nan
64	4	966851.52619	968354.4365	973364.545977	976387.470347	2906.04611338	149	412	286	158	-9	844	278	135	14	386	708	73	76	618	930	179	-30	-9	149	158	135	73	179
65	4	979376.862745	980662.931158	985672.992619	988696.753062	10520.7515343	25	224	445	175	30	1309	625	70	-45	561	379	6	19	934	492	46	-21	-21	25	46	175	70	6
66	4	999284.131995	1000403.24357	1005413.42525	1008436.35732	5277.40602705	142	1273	536	146	-4	408	444	173	-31	668	154	41	-79	1301	203	30	-68	-4	142	146	173	41	30
67	2	1013780.67848	1014799.10396	1019809.31974	1022815.42882	3407.07168599	144	424	577	8	-44	847	256	146	-2	nan	nan	nan	nan	nan	nan	nan	nan	-2	144	146	8	nan	nan
68	2	1026289.30641	1027459.09219	1032469.26288	1035491.39406	3590.91345604	78	894	139	90	-12	826	418	78	0	nan	nan	nan	nan	nan	nan	nan	nan	0	78	78	90	nan	nan
69	2	1039172.24232	1040501.64575	1045511.89378	1048534.79323	7098.33291304	16	228	358	14	2	1263	368	44	-28	nan	nan	nan	nan	nan	nan	nan	nan	2	16	14	44	nan	nan
70	2	1055699.33385	1056818.18225	1061828.43358	1064851.55588	2872.42800466	49	192	371	108	-59	1439	554	49	0	nan	nan	nan	nan	nan	nan	nan	nan	0	49	49	108	nan	nan
71	2	1067790.57536	1069043.28664	1074053.8389	1077076.17974	2688.92381586	89	575	196	90	-1	449	482	65	24	nan	nan	nan	nan	nan	nan	nan	nan	-1	89	90	65	nan	nan
72	4	1079832.64143	1081351.69443	1086361.77055	1089385.54786	2839.35017257	33	997	667	22	11	392	333	80	-47	939	422	51	-18	234	846	142	71	11	33	22	80	51	142
73	2	1092290.6626	1093460.59793	1098469.82808	1101492.71103	3991.93580311	159	586	558	169	-10	1173	140	60	-81	nan	nan	nan	nan	nan	nan	nan	nan	-10	159	169	60	nan	nan
74	4	1105567.7468	1106637.05066	1111647.3654	1114669.72274	4576.33881576	131	567	442	71	60	1226	809	12	-61	923	735	115	16	1430	302	54	77	16	131	115	71	12	54
75	2	1119329.66881	1120548.24883	1125558.47597	1128581.42856	2471.61641679	72	814	429	83	-11	1261	152	15	57	nan	nan	nan	nan	nan	nan	nan	nan	-11	72	83	15	nan	nan
76	4	1131136.5529	1132305.60451	1137315.74331	1140340.43073	5593.0019881	152	1135	617	126	26	1081	923	4	-32	1414	628	44	-72	480	110	159	-7	-7	152	159	126	4	44
77	2	1146017.05317	1147052.45045	1152062.55296	1155085.89665	2939.03707603	64	1340	419	69	-5	521	408	54	10	nan	nan	nan	nan	nan	nan	nan	nan	-5	64	69	54	nan	nan
78	2	1158074.89759	1159277.41079	1164287.44586	1167310.9292	7147.56919499	129	1249	553	166	-37	1233	112	53	76	nan	nan	nan	nan	nan	nan	nan	nan	-37	129	166	53	nan	nan
79	2	1174508.60154	1175744.2274	1180754.54727	1183777.48813	1803.57205692	169	230	837	110	59	908	150	173	-4	nan	nan	nan	nan	nan	nan	nan	nan	-4	169	173	110	nan	nan
