trialnr	nstim	fixonset	stimonset	maintenanceonset	probeonset	RT	response	stimx0	stimy0	stimori0	stimerror0	stimx1	stimy1	stimori1	stimerror1	stimx2	stimy2	stimori2	stimerror2	stimx3	stimy3	stimori3	stimerror3	E	X	T	NT0	NT1	NT2
0	2	5071.00090497	6406.07368577	11416.6518526	14439.3813495	23763.4207284	125	1336	678	138	-13	629	311	125	0	nan	nan	nan	nan	nan	nan	nan	nan	-13	125	138	125	nan	nan
1	2	38286.0393489	39621.9188707	44631.7951252	47654.6400803	4976.25923619	146	434	459	83	63	875	885	165	-19	nan	nan	nan	nan	nan	nan	nan	nan	-19	146	165	83	nan	nan
2	2	52731.8995507	54066.9419092	59077.0468808	62099.3603618	3774.24520601	149	602	197	147	2	375	844	164	-15	nan	nan	nan	nan	nan	nan	nan	nan	-15	149	164	147	nan	nan
3	4	65990.3392674	67459.8442011	72469.6673082	75492.4932035	3090.11931043	134	428	238	2	-48	1407	593	154	-20	627	324	143	-9	466	915	118	16	16	134	118	2	154	143
4	4	78648.5435228	79834.2816175	84843.9390513	87866.6956717	3307.51786578	144	998	435	43	-79	401	844	174	-30	219	285	25	-61	1466	610	101	43	43	144	101	43	174	25
5	4	91256.7305694	92709.405735	97720.0704038	100741.935614	4358.67426174	16	1036	287	22	-6	450	832	101	-85	1063	652	140	56	749	813	178	18	-6	16	22	101	140	178
6	2	105167.539323	106570.318602	111580.422108	114602.31774	5043.56328079	123	1228	593	37	86	254	300	116	7	nan	nan	nan	nan	nan	nan	nan	nan	7	123	116	37	nan	nan
7	2	119712.949751	121098.404075	126108.162672	129131.036217	6278.91026555	108	1212	167	56	52	1238	698	95	13	nan	nan	nan	nan	nan	nan	nan	nan	13	108	95	56	nan	nan
8	4	135493.437028	136979.475204	141989.750614	145011.942406	5828.35916358	25	1319	528	23	2	850	705	41	-16	247	919	8	17	764	870	120	85	-16	25	41	23	8	120
9	4	150924.371239	152292.879604	157302.79691	160325.44357	4326.15867763	167	1114	329	22	-35	537	882	45	-58	1146	554	160	7	899	359	1	-14	-14	167	1	22	45	160
10	2	164767.897939	165785.984186	170795.801428	173818.413634	3941.46087929	121	604	206	121	0	398	271	82	39	nan	nan	nan	nan	nan	nan	nan	nan	0	121	121	82	nan	nan
11	4	177826.307307	178911.775303	183921.505677	186944.280991	2755.51679257	146	715	803	137	9	385	178	91	55	1312	403	80	66	1004	374	176	-30	9	146	137	91	80	176
12	4	189783.78315	191102.462338	196112.25319	199134.730878	3508.75814301	155	1170	738	32	-57	473	748	147	8	1415	515	21	-46	994	441	179	-24	8	155	147	32	21	179
13	4	202691.913274	203777.462274	208787.598034	211809.794591	5578.26578909	131	504	791	4	-53	994	639	139	-8	173	288	126	5	1265	521	150	-19	5	131	126	4	139	150
14	2	217454.316138	218756.529892	223766.500346	226789.523803	8716.83464302	105	692	427	33	72	1412	872	108	-3	nan	nan	nan	nan	nan	nan	nan	nan	-3	105	108	33	nan	nan
15	4	235572.871144	236841.914318	241851.827593	244874.422938	3791.47339642	8	626	734	37	-29	557	120	47	-39	835	697	177	11	921	832	96	-88	-39	8	47	37	177	96
16	2	248765.965206	249934.47731	254944.162967	257967.487715	2654.56604042	127	1193	934	139	-12	981	740	34	-87	nan	nan	nan	nan	nan	nan	nan	nan	-12	127	139	34	nan	nan
17	4	260688.967075	262074.901192	267084.66492	270107.363995	3139.83779411	116	782	932	105	11	980	459	136	-20	310	692	42	74	647	182	169	-53	-20	116	136	105	42	169
18	2	273313.572638	274749.745351	279759.960649	282782.101126	4376.57504176	154	589	866	150	4	575	629	66	88	nan	nan	nan	nan	nan	nan	nan	nan	4	154	150	66	nan	nan
19	4	287290.987556	288626.935253	293636.665993	296659.453769	6028.5672815	103	1333	825	84	19	688	369	163	-60	466	468	58	45	1335	425	100	3	-60	103	163	84	58	100
20	2	302738.030929	303923.504753	308933.327127	311956.780528	3138.93098937	60	388	599	105	-45	468	803	69	-9	nan	nan	nan	nan	nan	nan	nan	nan	-9	60	69	105	nan	nan
21	4	315179.009266	316281.90558	321290.936974	324313.527555	2839.29873278	71	872	239	169	82	1035	348	90	-19	514	724	79	-8	1104	203	54	17	-8	71	79	169	90	54
22	4	327236.130634	328522.700724	333531.562046	336554.348723	2822.4931559	114	1229	469	97	17	1281	736	170	-56	615	334	154	-40	1125	640	116	-2	-2	114	116	97	170	154
23	4	339460.646544	340946.117325	345955.883986	348978.552272	2556.16269851	76	1329	938	55	21	807	391	143	-67	244	671	5	71	1089	616	79	-3	-3	76	79	55	143	5
24	2	351617.083923	352753.245382	357762.59676	360785.160584	2555.03120852	37	484	460	85	-48	213	939	35	2	nan	nan	nan	nan	nan	nan	nan	nan	2	37	35	85	nan	nan
25	4	363440.443931	364743.324411	369753.466402	372775.367533	6045.29185441	30	1504	420	130	80	310	718	79	-49	1364	111	27	3	924	327	17	13	3	30	27	130	79	17
26	4	378903.887495	380023.71364	385032.532445	388055.169209	2822.5690284	0	1105	837	17	-17	1410	388	144	36	259	376	58	-58	897	665	175	5	5	0	175	17	144	58
27	4	390944.164799	392079.83547	397089.521127	400112.681668	3039.01936068	6	667	331	41	-35	1224	798	174	12	1324	507	105	81	1413	225	30	-24	12	6	174	41	105	30
28	4	403239.438969	404637.840368	409647.460782	412670.208239	2505.34571289	55	1316	410	147	88	1327	929	56	-1	1208	605	8	47	1048	323	128	-73	-1	55	56	147	8	128
29	2	415242.192371	416310.728702	421320.58773	424343.01337	3274.18857653	29	361	776	26	3	971	789	115	-86	nan	nan	nan	nan	nan	nan	nan	nan	3	29	26	115	nan	nan
30	2	427683.066613	428701.902421	433712.03085	436733.978164	3590.54467296	127	1336	879	82	45	516	495	128	-1	nan	nan	nan	nan	nan	nan	nan	nan	-1	127	128	82	nan	nan
31	4	440374.459775	441610.80923	446620.092066	449642.94032	2905.84955032	127	963	365	62	65	616	159	137	-10	749	413	103	24	825	738	158	-31	-10	127	137	62	103	158
32	2	452615.263349	454034.532986	459044.32054	462067.343264	4107.75765222	105	1312	530	106	-1	334	181	29	76	nan	nan	nan	nan	nan	nan	nan	nan	-1	105	106	29	nan	nan
33	4	466275.265086	467460.826145	472470.689938	475493.29408	4893.28147124	157	1424	902	126	31	662	142	58	-81	1238	631	171	-14	984	510	15	-38	-14	157	171	126	58	15
34	2	480436.38017	481521.796118	486531.575242	489554.334061	6329.21740259	167	741	835	146	21	516	691	172	-5	nan	nan	nan	nan	nan	nan	nan	nan	-5	167	172	146	nan	nan
35	4	495966.932416	497285.999397	502295.812974	505319.046088	3422.8679001	133	236	247	78	55	953	713	118	15	1102	447	97	36	664	610	5	-52	15	133	118	78	97	5
36	2	508809.237459	510094.706115	515104.257987	518126.992615	3757.7035335	163	507	868	111	52	556	680	173	-10	nan	nan	nan	nan	nan	nan	nan	nan	-10	163	173	111	nan	nan
37	2	521951.076162	523304.532081	528313.499332	531336.816016	6712.70563923	10	450	417	16	-6	208	268	153	37	nan	nan	nan	nan	nan	nan	nan	nan	-6	10	16	153	nan	nan
38	2	538116.970114	539535.544803	544545.703655	547568.090443	5344.41756122	175	806	765	36	-41	216	551	14	-19	nan	nan	nan	nan	nan	nan	nan	nan	-19	175	14	36	nan	nan
39	2	552962.312623	554130.947516	559140.604949	562163.365968	4475.78585773	8	686	682	5	3	283	244	61	-53	nan	nan	nan	nan	nan	nan	nan	nan	3	8	5	61	nan	nan
40	2	566722.667663	567757.649286	572767.760123	575790.090464	3239.82969371	159	517	687	97	62	918	454	166	-7	nan	nan	nan	nan	nan	nan	nan	nan	-7	159	166	97	nan	nan
41	2	579096.397669	580148.456471	585158.311833	588181.044995	4175.02357729	15	1383	643	15	0	181	864	54	-39	nan	nan	nan	nan	nan	nan	nan	nan	0	15	15	54	nan	nan
42	4	592406.041797	593542.449201	598551.197264	601573.970012	2304.60135596	143	1430	540	21	-58	783	607	114	29	237	305	147	-4	195	635	173	-30	-4	143	147	21	114	173
43	4	603928.576848	605130.784408	610140.771722	613163.359004	3240.50888093	36	737	683	22	14	893	361	170	46	1402	320	7	29	1420	568	50	-14	29	36	7	22	170	50
44	2	616469.963101	617588.67645	622598.347812	625621.023795	4224.99240359	17	1499	278	26	-9	1248	233	120	77	nan	nan	nan	nan	nan	nan	nan	nan	-9	17	26	120	nan	nan
45	2	629912.821757	630948.070218	635957.88856	638980.650312	4408.58297648	36	413	708	42	-6	748	457	83	-47	nan	nan	nan	nan	nan	nan	nan	nan	-6	36	42	83	nan	nan
46	4	643472.849189	644908.79355	649918.585868	652941.930043	3690.12971999	157	1441	788	148	9	1246	721	107	50	350	163	20	-43	1023	640	169	-12	-12	157	169	148	107	20
47	4	656716.505496	658235.070985	663245.506936	666267.778999	2437.92107867	19	1417	294	33	-14	528	377	17	2	1084	106	151	48	446	107	7	12	-14	19	33	17	151	7
48	2	668772.298545	669824.278909	674834.130972	677856.717521	4241.89401234	96	1380	917	92	4	508	787	142	-46	nan	nan	nan	nan	nan	nan	nan	nan	4	96	92	142	nan	nan
49	4	682165.218797	683467.751069	688477.994957	691500.311371	3373.40672318	166	963	756	19	-33	709	200	131	35	186	480	174	-8	1090	888	121	45	-8	166	174	19	131	121
50	2	694956.978456	696409.703104	701419.609781	704442.308122	3156.31129133	57	1427	206	51	6	927	524	77	-20	nan	nan	nan	nan	nan	nan	nan	nan	6	57	51	77	nan	nan
51	2	707665.182327	709118.022433	714128.09185	717150.468375	3974.54495739	10	647	389	32	-22	1395	570	171	19	nan	nan	nan	nan	nan	nan	nan	nan	-22	10	32	171	nan	nan
52	4	721208.595145	722410.772283	727420.903645	730443.179007	2371.63013363	144	1220	379	76	68	323	207	156	-12	1492	890	51	-87	1178	717	115	29	-12	144	156	76	51	115
53	2	732881.456356	734401.07563	739411.34151	742434.812139	3472.31075033	102	970	142	112	-10	909	852	126	-24	nan	nan	nan	nan	nan	nan	nan	nan	-10	102	112	126	nan	nan
54	4	745973.602965	747209.408484	752219.199703	755241.816307	3323.55921959	170	1068	753	142	28	747	779	96	74	1107	566	168	2	1298	348	31	-41	2	170	168	142	96	31
55	4	758648.666312	759851.790206	764860.63027	767883.376994	3123.11835268	84	1256	770	164	-80	678	229	25	59	690	436	45	39	692	645	123	-39	-80	84	164	25	45	123
56	2	771073.703359	772258.564338	777268.453421	780291.03997	2388.51634796	154	1146	478	160	-6	1233	297	68	86	nan	nan	nan	nan	nan	nan	nan	nan	-6	154	160	68	nan	nan
57	2	782745.79045	784232.918331	789241.799813	792264.78625	2287.89327707	147	329	204	20	-53	407	588	145	2	nan	nan	nan	nan	nan	nan	nan	nan	2	147	145	20	nan	nan
58	2	794602.496609	795654.736845	800664.929785	803686.922915	3924.59079245	55	555	343	54	1	1453	434	128	-73	nan	nan	nan	nan	nan	nan	nan	nan	1	55	54	128	nan	nan
59	4	807711.522835	809180.915609	814190.673473	817213.435958	5243.85350229	64	678	399	134	-70	785	161	39	25	499	795	160	84	221	770	71	-7	-7	64	71	134	39	160
60	2	822524.988628	823909.713184	828919.581374	831942.703063	3540.95264346	111	1454	136	173	-62	712	775	103	8	nan	nan	nan	nan	nan	nan	nan	nan	8	111	103	173	nan	nan
61	4	835582.795414	836668.283203	841678.037768	844700.848636	2722.70394951	18	957	909	10	8	183	132	178	20	1435	460	119	79	1163	692	162	36	8	18	10	178	119	162
62	2	847489.346144	848758.601175	853768.452139	856790.921763	2171.11705955	54	1170	519	95	-41	474	743	60	-6	nan	nan	nan	nan	nan	nan	nan	nan	-6	54	60	95	nan	nan
63	2	859028.633991	860531.553249	865541.389552	868564.14214	4392.23776611	162	1481	635	151	11	835	415	161	1	nan	nan	nan	nan	nan	nan	nan	nan	1	162	161	151	nan	nan
64	2	873022.799138	874475.58573	879485.541889	882508.172788	3490.21849449	175	1117	869	174	1	303	670	78	-83	nan	nan	nan	nan	nan	nan	nan	nan	1	175	174	78	nan	nan
65	2	886081.83198	887284.203747	892293.883906	895316.461658	3240.05841083	16	1253	170	166	30	971	864	8	8	nan	nan	nan	nan	nan	nan	nan	nan	8	16	8	166	nan	nan
66	2	898624.124671	899858.831688	904868.58552	907891.104627	3106.30837739	156	1144	153	151	5	1216	755	172	-16	nan	nan	nan	nan	nan	nan	nan	nan	5	156	151	172	nan	nan
67	2	911065.387806	912383.819217	917393.067232	920415.713526	3790.89720522	60	1260	172	55	5	187	654	172	68	nan	nan	nan	nan	nan	nan	nan	nan	5	60	55	172	nan	nan
68	2	924290.106042	925610.176592	930619.837691	933641.639125	3023.68541719	28	1380	523	2	26	1157	673	29	-1	nan	nan	nan	nan	nan	nan	nan	nan	-1	28	29	2	nan	nan
69	2	936731.510658	937933.503063	942943.155365	945966.834185	4374.46747214	145	313	580	139	6	1050	913	0	-35	nan	nan	nan	nan	nan	nan	nan	nan	6	145	139	0	nan	nan
70	4	950424.68884	951877.332484	956887.147527	959909.945566	3740.92837892	169	1115	931	137	32	929	537	174	-5	1462	219	55	-66	1289	111	99	70	-5	169	174	137	55	99
71	4	963750.848617	965053.320045	970063.132523	973085.716139	2020.75497909	53	1476	614	122	-69	376	549	49	4	593	189	36	17	1073	464	135	-82	4	53	49	122	36	135
72	4	975190.621059	976525.650588	981535.644134	984558.230682	2255.31978062	122	1481	608	129	-7	1323	840	61	61	1475	836	116	6	314	818	24	-82	-7	122	129	61	116	24
73	2	986896.497439	988298.76687	993308.554057	996331.286853	6579.7495181	94	660	879	176	-82	1118	318	101	-7	nan	nan	nan	nan	nan	nan	nan	nan	-7	94	101	176	nan	nan
74	4	1002994.32496	1004030.23318	1009039.39176	1012062.61095	2671.53912327	7	1484	652	3	4	1462	484	48	-41	1126	937	103	84	965	680	13	-6	-6	7	13	3	48	103
75	4	1014817.74178	1016220.3235	1021230.86391	1024252.81855	3005.92062123	68	502	875	131	-63	752	666	58	10	1262	569	106	-38	558	116	82	-14	-14	68	82	131	58	106
76	4	1027343.0306	1028478.069	1033488.04898	1036510.04431	3139.7564236	74	1207	515	2	72	791	885	98	-24	1493	457	78	-4	873	124	112	-38	-4	74	78	2	98	112
77	4	1039733.20991	1040952.81903	1045961.81817	1048984.60521	3240.27613194	48	1185	758	22	26	431	197	81	-33	662	507	130	-82	452	730	176	52	52	48	176	22	81	130
78	4	1052308.17469	1053627.48249	1058636.6594	1061659.38339	4225.01879402	62	962	320	36	26	1199	355	105	-43	435	405	56	6	1190	174	22	40	26	62	36	105	56	22
79	4	1065969.42998	1067220.94734	1072230.13011	1075252.75074	3657.16366579	116	703	686	155	-39	1256	613	44	72	1081	295	70	46	893	654	136	-20	-20	116	136	155	44	70
