trialnr	nstim	fixonset	stimonset	maintenanceonset	probeonset	RT	response	stimx0	stimy0	stimori0	stimerror0	stimx1	stimy1	stimori1	stimerror1	stimx2	stimy2	stimori2	stimerror2	stimx3	stimy3	stimori3	stimerror3	E	X	T	NT0	NT1	NT2
0	4	1881.14853245	2966.40217109	7976.3086593	10999.8159967	24117.5326551	139	493	565	24	-65	630	269	116	23	941	489	168	-29	1287	134	142	-3	-29	139	168	24	116	142
1	2	35180.9089616	36550.3340649	41560.1907037	44583.8439242	8449.51638656	137	1490	847	58	79	303	716	148	-11	nan	nan	nan	nan	nan	nan	nan	nan	79	137	58	148	nan	nan
2	2	53099.9027935	54435.6930473	59446.4378135	62468.4511321	10003.1012986	40	1348	643	132	88	1011	195	32	8	nan	nan	nan	nan	nan	nan	nan	nan	8	40	32	132	nan	nan
3	4	72539.0471855	73840.9383142	78850.7220113	81873.5688429	4007.97225436	120	1252	186	46	74	1466	759	102	18	463	630	16	-76	871	427	120	0	18	120	102	46	16	120
4	4	85948.3159666	87167.2436013	92177.2219314	95199.8942897	4308.593687	120	225	873	134	-14	909	474	56	64	287	239	109	11	613	371	121	-1	11	120	109	134	56	121
5	2	99575.1169631	100877.678494	105887.557125	109127.889988	5176.57682028	93	1144	469	135	-42	681	460	97	-4	nan	nan	nan	nan	nan	nan	nan	nan	-4	93	97	135	nan	nan
6	2	114371.84537	115439.929888	120449.713219	123472.53256	3991.41305734	126	1099	852	151	-25	864	250	90	36	nan	nan	nan	nan	nan	nan	nan	nan	-25	126	151	90	nan	nan
7	2	127530.501662	128565.807569	133576.350005	136598.524601	5060.05764948	24	215	142	10	14	1231	727	30	-6	nan	nan	nan	nan	nan	nan	nan	nan	14	24	10	30	nan	nan
8	4	141708.652407	142844.064904	147854.862085	150877.377565	5293.63590513	25	1256	522	148	57	943	669	159	46	820	281	175	30	812	831	17	8	8	25	17	148	159	175
9	2	156238.882829	157423.266594	162432.830367	165455.508223	7247.91035301	131	796	438	102	29	1293	286	160	-29	nan	nan	nan	nan	nan	nan	nan	nan	-29	131	160	102	nan	nan
10	2	172771.149749	174156.055688	179165.909028	182188.77272	4442.20720384	132	1170	470	126	6	272	565	83	49	nan	nan	nan	nan	nan	nan	nan	nan	6	132	126	83	nan	nan
11	4	186715.073829	187900.160618	192910.358872	195932.641232	4809.65152268	110	237	471	178	-68	393	939	20	90	581	147	112	-2	781	629	135	-25	-2	110	112	178	20	135
12	2	200809.346195	202144.739852	207154.710851	210177.369281	3624.27626592	8	909	706	93	-85	485	260	19	-11	nan	nan	nan	nan	nan	nan	nan	nan	-11	8	19	93	nan	nan
13	2	213867.92632	215237.511601	220247.615655	223269.919273	3957.92299132	99	1010	454	107	-8	512	756	137	-38	nan	nan	nan	nan	nan	nan	nan	nan	-8	99	107	137	nan	nan
14	2	227311.597852	228564.104622	233573.627709	236596.515227	3590.21916185	106	1287	542	116	-10	483	256	43	63	nan	nan	nan	nan	nan	nan	nan	nan	-10	106	116	43	nan	nan
15	4	240271.085971	241288.844855	246298.818054	249322.400532	3055.60345017	149	1004	794	33	-64	586	568	60	89	388	936	10	-41	1404	870	150	-1	-64	149	33	60	10	150
16	2	252444.373091	253897.359516	258907.266371	261930.455551	5611.72042349	145	673	124	144	1	296	746	111	34	nan	nan	nan	nan	nan	nan	nan	nan	1	145	144	111	nan	nan
17	4	267591.896451	269043.980453	274053.968313	277076.535475	3791.08148487	159	1319	809	35	-56	1017	372	177	-18	1379	231	138	21	550	769	79	80	21	159	138	35	177	79
18	4	280934.569234	282338.670162	287346.762642	290369.536532	2822.22422598	42	566	804	160	62	1229	378	35	7	698	191	67	-25	700	692	90	-48	-48	42	90	160	35	67
19	4	293275.219814	294744.927447	299755.113239	302777.47917	4425.32618433	2	1078	358	1	1	444	388	124	58	1503	272	137	45	255	348	91	-89	1	2	1	124	137	91
20	4	307286.256347	308405.642597	313415.720259	316437.799189	6012.68009964	90	328	546	51	39	1349	804	69	21	709	277	99	-9	674	495	150	-60	21	90	69	51	99	150
21	4	322533.177774	323651.969495	328662.442288	331684.624949	3757.31761315	141	438	587	93	48	312	459	6	-45	896	453	146	-5	1435	171	73	68	-5	141	146	93	6	73
22	4	335525.403451	336727.954426	341737.687907	344760.524109	3072.71905556	90	222	294	122	-32	642	240	92	-2	189	548	75	15	931	264	17	73	-2	90	92	122	75	17
23	2	347900.394837	348952.349744	353962.541401	356984.618864	3073.47522846	165	1037	787	146	19	1089	243	161	4	nan	nan	nan	nan	nan	nan	nan	nan	4	165	161	146	nan	nan
24	4	360140.830698	361577.926495	366586.901238	369609.700053	2956.1313417	161	1347	579	97	64	392	319	169	-8	853	304	117	44	1031	558	32	-51	44	161	117	97	169	32
25	4	372649.462725	373884.845459	378894.761111	381917.31471	3273.29364434	172	471	586	6	-14	1323	920	145	27	255	823	117	55	621	764	173	-1	-14	172	6	145	117	173
26	4	385257.285724	386543.09819	391553.118673	394575.582103	4225.45718588	61	508	745	178	63	1405	179	99	-38	316	725	138	-77	577	590	46	15	15	61	46	178	99	138
27	2	398884.188619	400387.280021	405397.00947	408420.120211	4024.74367828	71	1271	124	83	-12	790	666	59	12	nan	nan	nan	nan	nan	nan	nan	nan	12	71	59	83	nan	nan
28	4	412511.162989	413897.246622	418907.070638	421930.402403	2171.87410656	92	773	677	165	-73	192	262	86	6	1099	296	17	75	886	142	135	-43	-73	92	165	86	17	135
29	2	424167.69188	425453.478689	430481.974275	433503.133554	2905.61363999	8	1091	401	91	-83	471	342	3	5	nan	nan	nan	nan	nan	nan	nan	nan	5	8	3	91	nan	nan
30	2	436476.83941	437828.303299	442837.82492	445860.646827	3540.55220049	78	1185	422	163	-85	402	111	77	1	nan	nan	nan	nan	nan	nan	nan	nan	1	78	77	163	nan	nan
31	4	449501.854695	450770.247693	455780.102866	458802.929171	2471.52054166	113	283	539	85	28	1253	204	141	-28	984	576	116	-3	558	336	175	-62	-28	113	141	85	116	175
32	2	461341.322082	462493.570148	467503.303262	470526.118938	4007.99461332	143	1311	752	126	17	1503	666	149	-6	nan	nan	nan	nan	nan	nan	nan	nan	17	143	126	149	nan	nan
33	2	474600.680592	475636.249309	480646.307545	483668.585506	4692.95274707	156	940	688	97	59	212	877	163	-7	nan	nan	nan	nan	nan	nan	nan	nan	-7	156	163	97	nan	nan
34	2	488428.025022	489597.629143	494607.807238	497629.731487	5427.52579345	147	1037	841	41	-74	268	652	148	-1	nan	nan	nan	nan	nan	nan	nan	nan	-1	147	148	41	nan	nan
35	2	503123.97387	504343.045189	509352.85381	512375.574186	2655.56305742	95	904	902	167	-72	509	543	31	64	nan	nan	nan	nan	nan	nan	nan	nan	64	95	31	167	nan	nan
36	4	515114.239656	516283.135988	521293.089027	524316.160914	4358.62462301	149	551	123	125	24	1170	112	79	70	662	284	6	-37	452	700	45	-76	24	149	125	79	6	45
37	2	528757.916907	529860.119741	534869.92983	537892.761999	3357.53819718	90	929	713	107	-17	215	163	165	-75	nan	nan	nan	nan	nan	nan	nan	nan	-17	90	107	165	nan	nan
38	2	541316.068913	542468.400183	547478.322432	550501.085693	3306.65468813	39	1434	295	156	63	1319	594	21	18	nan	nan	nan	nan	nan	nan	nan	nan	18	39	21	156	nan	nan
39	4	553857.75189	555176.855024	560186.744285	563209.60028	2354.51717095	90	245	591	70	20	917	736	3	87	925	188	123	-33	386	482	108	-18	-18	90	108	70	3	123
40	4	565614.163782	566649.691813	571659.435557	574682.098385	3740.8669121	60	1476	162	85	-25	495	397	43	17	176	561	164	76	840	651	117	-57	-57	60	117	85	43	164
41	2	578489.741633	579708.789859	584718.599214	587741.333152	4308.62557602	57	577	165	36	21	273	405	8	49	nan	nan	nan	nan	nan	nan	nan	nan	21	57	36	8	nan	nan
42	2	592100.099992	593202.130919	598211.99049	601234.817529	3490.72322825	112	870	133	55	57	676	133	109	3	nan	nan	nan	nan	nan	nan	nan	nan	3	112	109	55	nan	nan
43	2	604791.885308	605977.521908	610987.251357	614010.002155	3640.97254905	24	1497	510	155	49	496	265	19	5	nan	nan	nan	nan	nan	nan	nan	nan	5	24	19	155	nan	nan
44	2	617700.632502	618719.297474	623729.139818	626751.922138	4760.19788785	156	1352	783	57	-81	1315	158	175	-19	nan	nan	nan	nan	nan	nan	nan	nan	-19	156	175	57	nan	nan
45	2	631561.911611	632713.688306	637723.575367	640746.24406	2655.39408228	64	718	301	52	12	988	106	127	-63	nan	nan	nan	nan	nan	nan	nan	nan	12	64	52	127	nan	nan
46	2	643501.697082	644737.429496	649747.32792	652770.209207	4025.01015317	12	1286	266	27	-15	850	106	101	-89	nan	nan	nan	nan	nan	nan	nan	nan	-15	12	27	101	nan	nan
47	2	656861.598732	658147.45555	663157.239613	666180.491839	2253.92894687	68	1489	703	164	84	276	315	144	-76	nan	nan	nan	nan	nan	nan	nan	nan	-76	68	144	164	nan	nan
48	4	668517.907699	669536.538216	674546.598651	677569.120362	2839.17708741	144	1130	754	157	-13	1476	883	128	16	757	221	10	-46	349	611	41	-77	16	144	128	157	10	41
49	4	680474.919838	681828.214963	686838.554702	689860.223472	3073.69185386	10	784	666	119	71	312	485	96	-86	824	887	39	-29	855	409	16	-6	-6	10	16	119	96	39
50	2	693017.279815	694085.06707	699095.046866	702118.711449	5710.30073909	27	197	520	179	28	583	166	115	-88	nan	nan	nan	nan	nan	nan	nan	nan	28	27	179	115	nan	nan
51	4	707879.076479	709315.301743	714325.216296	717348.909469	2454.14579219	90	1262	116	96	-6	956	811	20	70	457	224	117	-27	1109	917	69	21	21	90	69	96	20	117
52	4	719886.208257	721138.701465	726148.740274	729171.366815	9318.6860112	81	378	624	43	38	1302	823	7	74	639	171	167	-86	663	566	101	-20	38	81	43	7	167	101
53	4	738539.952907	739759.008464	744768.750009	747791.473683	2605.4632118	92	796	231	132	-40	424	167	82	10	1505	117	31	61	469	841	170	-78	10	92	82	132	31	170
54	2	750463.757948	751715.891214	756725.884572	759748.503049	3857.68371373	101	1050	552	164	-63	473	417	104	-3	nan	nan	nan	nan	nan	nan	nan	nan	-63	101	164	104	nan	nan
55	4	763656.414531	765175.853636	770185.766355	773209.007218	4575.25478225	30	943	814	3	27	1424	344	101	-71	462	470	30	0	995	440	141	69	0	30	30	3	101	141
56	2	777852.912457	779137.652792	784147.494036	787169.437346	5193.60445596	16	1313	761	29	-13	274	810	7	9	nan	nan	nan	nan	nan	nan	nan	nan	9	16	7	29	nan	nan
57	2	792429.757292	793782.419768	798792.30573	801815.058727	3122.93582757	73	234	533	125	-52	223	800	68	5	nan	nan	nan	nan	nan	nan	nan	nan	-52	73	125	68	nan	nan
58	4	804987.947418	806041.144163	811049.959094	814072.775503	3256.44817925	75	1505	133	83	-8	1209	610	141	-66	382	296	63	12	182	527	44	31	31	75	44	83	141	63
59	4	817412.604666	818815.415737	823825.296568	826848.071924	5961.85010549	168	524	336	89	79	1251	543	152	16	946	823	5	-17	554	128	105	63	-17	168	5	89	152	105
60	4	832893.197449	833961.968865	838971.953059	841994.571903	2455.08816764	90	1101	888	178	-88	1232	716	50	40	418	547	94	-4	854	242	140	-50	-50	90	140	178	50	94
61	4	844533.048385	845818.725598	850828.738749	853851.885777	4258.00670916	140	1324	605	126	14	933	937	110	30	778	149	32	-72	801	392	137	3	14	140	126	110	32	137
62	2	858194.465459	859545.972967	864555.881288	867578.544849	3974.87695238	145	495	841	17	-52	552	578	163	-18	nan	nan	nan	nan	nan	nan	nan	nan	-18	145	163	17	nan	nan
63	2	871586.485581	872805.523911	877815.508839	880838.052541	3440.32135333	62	448	767	50	12	1278	679	63	-1	nan	nan	nan	nan	nan	nan	nan	nan	12	62	50	63	nan	nan
64	4	884345.17882	885413.823413	890423.888613	893446.417287	4074.82739611	48	577	862	36	12	1456	813	9	39	354	857	53	-5	866	343	127	-79	-5	48	53	36	9	127
65	2	897588.00819	898873.809293	903883.862398	906906.514963	3089.55352443	36	1084	218	32	4	522	176	109	-73	nan	nan	nan	nan	nan	nan	nan	nan	4	36	32	109	nan	nan
66	2	910063.385837	911365.197426	916391.833186	919414.90434	3313.0731776	53	878	287	28	25	245	740	150	83	nan	nan	nan	nan	nan	nan	nan	nan	25	53	28	150	nan	nan
67	2	922754.965157	924174.00224	929183.819293	932206.539668	3457.11586929	115	364	274	105	10	1126	344	4	-69	nan	nan	nan	nan	nan	nan	nan	nan	10	115	105	4	nan	nan
68	2	935696.868132	937149.573787	942159.482841	945183.067885	3105.48337153	89	614	618	90	-1	791	112	175	-86	nan	nan	nan	nan	nan	nan	nan	nan	-86	89	175	90	nan	nan
69	4	948338.59722	949658.095119	954667.695179	957690.369737	10487.4914413	64	278	744	89	-25	1385	868	78	-14	716	613	58	6	321	227	106	-42	-25	64	89	78	58	106
70	4	968246.209972	969296.506283	974306.45529	977329.099425	2438.73936483	112	1156	807	57	55	291	512	89	23	261	164	178	-66	477	716	13	-81	55	112	57	89	178	13
71	2	979835.301289	981053.869347	986062.973112	989085.848534	4341.85319909	85	336	237	108	-23	905	671	7	78	nan	nan	nan	nan	nan	nan	nan	nan	78	85	7	108	nan	nan
72	4	993511.366419	994546.655832	999556.538495	1002579.09723	2188.04696996	95	1153	197	150	-55	1123	808	128	-33	297	352	20	75	625	667	32	63	-33	95	128	150	20	32
73	4	1004800.09655	1005918.95388	1010928.94834	1013951.98943	3340.48197134	62	465	713	33	29	579	266	142	-80	983	144	116	-54	984	308	88	-26	-54	62	116	33	142	88
74	4	1017359.21769	1018861.23586	1023871.15188	1026894.16732	4024.46840641	167	822	133	97	70	832	775	31	-44	1368	694	6	-19	677	790	112	55	70	167	97	31	6	112
75	4	1031002.16149	1032471.84676	1037481.48678	1040504.25517	3741.00839671	140	554	217	131	9	733	177	26	-66	273	246	57	83	389	501	70	70	-66	140	26	131	57	70
76	4	1044311.76646	1045597.55217	1050607.60344	1053630.31282	7749.63235995	116	623	418	119	-3	479	720	175	-59	872	318	13	-77	1051	528	62	54	-59	116	175	119	13	62
77	2	1061446.19626	1062898.58193	1067908.48512	1070931.52512	4592.33116781	81	460	291	62	19	1409	145	100	-19	nan	nan	nan	nan	nan	nan	nan	nan	19	81	62	100	nan	nan
78	4	1075606.91911	1076909.66904	1081919.60485	1084942.0199	3357.69654264	64	809	341	151	-87	773	625	47	17	1133	520	109	-45	1146	820	138	-74	-74	64	138	151	47	109
79	4	1088373.12496	1089734.98174	1094744.86037	1097767.4136	4509.1041312	75	986	178	79	-4	447	123	45	30	1219	202	155	-80	279	274	177	78	78	75	177	79	45	155
