trialnr	nstim	fixonset	stimonset	maintenanceonset	probeonset	RT	response	stimx0	stimy0	stimori0	stimerror0	stimx1	stimy1	stimori1	stimerror1	stimx2	stimy2	stimori2	stimerror2	stimx3	stimy3	stimori3	stimerror3	E	X	T	NT0	NT1	NT2
0	2	2230.91694548	3817.78199215	8828.71837879	11850.4870554	18052.4321245	120	1506	245	121	-1	243	201	32	88	nan	nan	nan	nan	nan	nan	nan	nan	-1	120	121	32	nan	nan
1	2	29969.4846333	31338.6805081	36348.4773289	39371.2528847	7999.98387234	32	248	343	23	9	241	878	153	59	nan	nan	nan	nan	nan	nan	nan	nan	9	32	23	153	nan	nan
2	4	47453.8653604	48873.1013345	53882.9315102	56905.4592865	7214.45463582	125	450	723	87	38	523	541	135	-10	1041	536	169	-44	218	846	158	-33	38	125	87	135	169	158
3	2	64153.0390377	65422.1594791	70432.1128115	73455.2420762	8733.32583153	5	562	298	138	47	1117	876	5	0	nan	nan	nan	nan	nan	nan	nan	nan	0	5	5	138	nan	nan
4	2	82255.3529172	83424.2630392	88433.9319383	91456.9340144	4960.30139666	147	239	886	2	-35	1327	571	149	-2	nan	nan	nan	nan	nan	nan	nan	nan	-2	147	149	2	nan	nan
5	2	96483.2495917	97502.0790021	102511.521381	105534.492301	8750.4651364	145	991	733	146	-1	836	150	97	48	nan	nan	nan	nan	nan	nan	nan	nan	-1	145	146	97	nan	nan
6	4	114401.70704	115637.288544	120647.230514	123669.809972	5928.34187122	66	743	395	13	53	803	215	178	68	1408	580	61	5	1124	562	91	-25	-25	66	91	13	178	61
7	2	129681.668568	130716.84153	135726.643482	138749.419404	3340.0487935	63	734	146	25	38	969	661	152	-89	nan	nan	nan	nan	nan	nan	nan	nan	38	63	25	152	nan	nan
8	2	142156.80338	143291.887567	148302.064121	151324.064816	4559.24276235	132	515	160	140	-8	624	497	126	6	nan	nan	nan	nan	nan	nan	nan	nan	-8	132	140	126	nan	nan
9	2	155949.85727	157235.657745	162245.444669	165268.56587	8416.07935102	115	534	236	74	41	1447	227	105	10	nan	nan	nan	nan	nan	nan	nan	nan	10	115	105	74	nan	nan
10	4	173717.831548	174953.959561	179964.092497	182986.023916	5093.59211387	48	213	799	21	27	390	925	52	-4	792	415	37	11	828	634	109	-61	11	48	37	21	52	109
11	2	188146.307206	189399.563527	194408.389023	197431.146618	4392.48311727	114	528	653	125	-11	394	217	149	-35	nan	nan	nan	nan	nan	nan	nan	nan	-11	114	125	149	nan	nan
12	2	201890.08706	203292.501151	208302.287342	211325.411475	5293.30423512	52	528	704	53	-1	603	318	73	-21	nan	nan	nan	nan	nan	nan	nan	nan	-21	52	73	53	nan	nan
13	2	216685.494122	217904.465236	222914.256925	225938.771703	12005.8103563	116	174	430	107	9	1354	721	78	38	nan	nan	nan	nan	nan	nan	nan	nan	38	116	78	107	nan	nan
14	2	238044.308549	239530.344927	244540.01126	247562.639834	7030.62789382	162	1453	250	34	-52	1011	423	172	-10	nan	nan	nan	nan	nan	nan	nan	nan	-10	162	172	34	nan	nan
15	2	254660.057136	256129.934331	261139.380375	264161.917681	4459.86851558	138	1214	721	120	18	207	387	169	-31	nan	nan	nan	nan	nan	nan	nan	nan	-31	138	169	120	nan	nan
16	4	268687.422477	269973.349407	274983.041032	278005.815854	4576.34468036	90	1438	684	64	26	796	613	127	-37	1330	323	101	-11	832	383	87	3	3	90	87	64	127	101
17	2	282648.386941	284067.681927	289077.369886	292099.966572	4074.90858549	57	1323	252	119	-62	1338	549	2	55	nan	nan	nan	nan	nan	nan	nan	nan	-62	57	119	2	nan	nan
18	4	296208.066616	297310.179266	302319.963258	305342.832648	3573.68031751	83	1322	300	84	-1	364	647	148	-65	318	479	52	31	580	875	137	-54	-54	83	137	84	148	52
19	2	308999.816365	310452.618766	315462.423284	318485.440388	5210.15221579	50	844	218	20	30	840	922	80	-30	nan	nan	nan	nan	nan	nan	nan	nan	30	50	20	80	nan	nan
20	2	323762.37688	324880.904557	329890.71384	332913.342414	6546.4271367	132	762	483	145	-13	1111	334	114	18	nan	nan	nan	nan	nan	nan	nan	nan	-13	132	145	114	nan	nan
21	2	339527.264177	340845.675514	345855.323521	348877.989848	6963.94624797	169	617	456	60	-71	1022	132	171	-2	nan	nan	nan	nan	nan	nan	nan	nan	-2	169	171	60	nan	nan
22	4	355908.50045	357227.831064	362237.488234	365260.067692	4108.12386923	88	510	344	115	-27	1352	749	4	84	285	489	160	-72	1427	401	97	-9	-9	88	97	115	4	160
23	2	369435.000029	370887.928519	375897.589355	378920.209498	3473.64886857	13	1208	356	157	36	1407	733	8	5	nan	nan	nan	nan	nan	nan	nan	nan	5	13	8	157	nan	nan
24	4	382477.395251	383596.033255	388605.903384	391628.461949	3507.29776647	23	692	621	178	25	663	409	72	-49	517	506	82	-59	1055	579	28	-5	-5	23	28	178	72	82
25	2	395202.346061	396605.23995	401615.375818	404637.362952	3123.349114	157	835	349	161	-4	187	265	59	-82	nan	nan	nan	nan	nan	nan	nan	nan	-4	157	161	59	nan	nan
26	4	407827.108912	409313.114501	414323.084327	417345.972043	10052.8804002	139	306	620	128	11	452	301	64	75	619	861	172	-33	1456	772	160	-21	11	139	128	64	172	160
27	4	427466.419645	428701.522818	433711.564486	436733.570679	3574.59482918	154	1327	364	48	-74	850	389	162	-8	1261	119	117	37	1415	729	10	-36	37	154	117	48	162	10
28	2	440374.073759	441593.102786	446603.032293	449625.650971	3574.51309126	42	1257	264	57	-15	1326	820	19	23	nan	nan	nan	nan	nan	nan	nan	nan	-15	42	57	19	nan	nan
29	2	453249.465955	454535.138874	459544.946691	462567.72078	8182.80446824	73	829	123	113	-40	1382	659	84	-11	nan	nan	nan	nan	nan	nan	nan	nan	-11	73	84	113	nan	nan
30	2	470817.232919	471869.245357	476879.209686	479901.652059	5176.9908131	32	829	313	29	3	1029	581	87	-55	nan	nan	nan	nan	nan	nan	nan	nan	3	32	29	87	nan	nan
31	4	485162.088855	486648.220899	491657.911057	494680.549162	5126.94118389	0	240	720	118	62	270	397	65	-65	1509	502	175	5	382	221	39	-39	5	0	175	118	65	39
32	4	499890.992775	501226.751611	506236.507013	509259.147316	5310.76426052	114	349	891	121	-7	860	362	31	83	1447	300	81	33	1200	441	153	-39	83	114	31	121	81	153
33	2	514636.688522	515988.968314	520998.927511	524021.93985	5744.48543965	115	1091	490	159	-44	522	421	101	14	nan	nan	nan	nan	nan	nan	nan	nan	14	115	101	159	nan	nan
34	4	529832.824335	531119.015905	536128.496404	539151.115448	7164.17848629	27	1489	939	23	4	510	869	163	44	618	177	37	-10	1199	856	178	29	29	27	178	23	163	37
35	4	546366.383064	547433.977756	552443.773477	555466.533271	4325.88394242	11	659	484	174	17	1315	373	46	-35	809	935	149	42	514	741	132	59	17	11	174	46	149	132
36	4	559875.545408	560943.954913	565953.613916	568976.22233	2371.56260905	147	338	748	152	-5	972	403	83	64	236	202	99	48	675	242	4	-37	48	147	99	152	83	4
37	4	571431.347481	572783.817872	577793.506564	580816.191951	5444.52744488	171	377	528	153	18	666	358	63	-72	1430	336	143	28	181	835	43	-52	18	171	153	63	143	43
38	4	586343.834395	587729.627832	592739.482566	595762.089148	3573.80897226	36	993	605	81	-45	1324	109	34	2	383	369	59	-23	956	839	98	-62	2	36	34	81	59	98
39	4	599402.937873	600604.893206	605614.692226	608637.342059	4742.82758944	27	328	662	53	-26	412	342	93	-66	1157	516	147	60	1128	219	1	26	60	27	147	53	93	1
40	2	613447.455715	614732.728375	619742.624528	622765.036478	3356.64195714	56	898	709	135	-79	1473	194	66	-10	nan	nan	nan	nan	nan	nan	nan	nan	-10	56	66	135	nan	nan
41	2	626171.963015	627490.94102	632500.942735	635523.621158	7063.85380715	67	665	327	59	8	961	566	133	-66	nan	nan	nan	nan	nan	nan	nan	nan	8	67	59	133	nan	nan
42	4	642670.786062	644107.029754	649116.753267	652139.417029	4442.01006366	34	1508	418	102	-68	1380	208	58	-24	1042	543	44	-10	1267	751	4	30	-24	34	58	102	44	4
43	4	656648.226031	657750.942735	662760.236666	665782.872204	5109.88471655	36	1491	585	99	-63	663	679	170	46	1291	350	70	-34	881	442	51	-15	-15	36	51	99	170	70
44	4	670976.668406	672145.187066	677155.018342	680177.818455	5277.0966692	3	627	417	86	-83	979	901	13	-10	1482	653	164	19	1471	343	123	60	19	3	164	86	13	123
45	4	685538.172707	686958.163749	691968.229242	694989.979958	4175.00564468	151	482	764	96	55	640	646	116	35	1232	388	78	73	613	259	30	-59	73	151	78	96	116	30
46	4	699248.545212	700751.278484	705761.089599	708783.860024	6496.49479956	133	420	141	78	55	747	588	67	66	313	320	54	79	806	326	120	13	13	133	120	78	67	54
47	2	715330.154474	716432.025209	721442.825244	724464.589522	6563.4561137	35	439	709	28	7	183	182	161	54	nan	nan	nan	nan	nan	nan	nan	nan	7	35	28	161	nan	nan
48	2	731094.165379	732296.490181	737306.290301	740329.040199	3607.89405007	47	451	322	62	-15	1511	217	91	-44	nan	nan	nan	nan	nan	nan	nan	nan	-15	47	62	91	nan	nan
49	2	744003.198408	745489.146817	750498.84504	753521.536292	5811.6109627	148	1506	869	90	58	999	162	133	15	nan	nan	nan	nan	nan	nan	nan	nan	15	148	133	90	nan	nan
50	4	759416.795199	760518.489996	765528.286451	768550.932985	4075.00058646	12	578	543	108	84	362	528	22	-10	803	371	97	-85	997	524	10	2	-10	12	22	108	97	10
51	2	772692.378434	773995.037812	779004.765357	782027.720516	3256.23004202	36	214	837	16	20	1198	369	35	1	nan	nan	nan	nan	nan	nan	nan	nan	20	36	16	35	nan	nan
52	2	785351.312132	786586.252562	791596.905615	794618.689686	5110.398969	161	826	647	165	-4	1455	222	148	13	nan	nan	nan	nan	nan	nan	nan	nan	13	161	148	165	nan	nan
53	2	799795.688563	800931.049119	805940.865	808963.718995	3674.79928393	38	1242	297	42	-4	1240	108	65	-27	nan	nan	nan	nan	nan	nan	nan	nan	-4	38	42	65	nan	nan
54	4	812721.054881	813739.519586	818749.378352	821772.009492	3891.30066651	150	1071	707	44	-74	1375	211	115	35	376	915	86	64	202	745	171	-21	35	150	115	44	86	171
55	4	825746.459245	827099.047295	832108.834952	835131.578619	7882.95973363	61	778	392	49	12	328	666	167	74	1115	657	156	85	580	241	29	32	12	61	49	167	156	29
56	2	843081.071185	844282.733287	849292.549167	852315.142187	4242.31553622	162	1336	339	169	-7	1341	641	81	81	nan	nan	nan	nan	nan	nan	nan	nan	-7	162	169	81	nan	nan
57	4	856623.636113	857959.593612	862969.373939	865992.024139	3725.10329034	36	1205	556	151	65	662	683	4	32	1062	222	44	-8	421	815	80	-44	-44	36	80	151	4	44
58	4	869749.733894	871202.206411	876212.061877	879235.116002	3791.06212375	46	1185	331	98	-52	1074	131	70	-24	1511	128	33	13	786	177	84	-38	13	46	33	98	70	84
59	4	883058.788622	884462.392861	889471.405291	892494.063921	3207.25180263	154	690	271	139	15	246	529	74	80	608	882	170	-16	759	559	59	-85	15	154	139	74	170	59
60	4	895767.273091	897002.796316	902012.57701	905035.245903	5176.97541851	148	528	288	58	90	306	524	163	-15	1235	431	150	-2	740	705	31	-63	-15	148	163	58	150	31
61	4	910262.316401	911515.398617	916524.555463	919547.107797	4710.1775069	147	950	392	31	-64	526	906	70	77	1356	831	152	-5	1211	575	54	-87	-5	147	152	31	70	54
62	4	924306.947136	925508.694275	930518.629281	933541.264453	5444.08466729	130	1466	823	79	51	1017	682	1	-51	1138	528	120	10	615	859	139	-9	10	130	120	79	1	139
63	2	939052.502866	940521.600802	945531.273367	948554.034261	6612.98929123	169	1291	621	170	-1	478	520	158	11	nan	nan	nan	nan	nan	nan	nan	nan	-1	169	170	158	nan	nan
64	4	955234.092995	956586.45819	961596.10363	964619.500834	3873.65737225	167	1134	115	102	65	795	908	33	-46	948	430	72	-85	578	576	119	48	65	167	102	33	72	119
65	4	968576.739075	969795.627718	974805.76102	977827.958913	5360.89636072	140	314	285	47	-87	1172	538	145	-5	519	843	17	-57	1132	180	35	-75	-57	140	17	47	145	35
66	2	983255.332025	984273.881767	989283.900343	992306.32952	4241.77672573	159	1287	361	164	-5	484	161	12	-33	nan	nan	nan	nan	nan	nan	nan	nan	-5	159	164	12	nan	nan
67	4	996614.82088	998000.953731	1003010.67248	1006033.24644	8583.98515962	106	832	938	115	-9	730	435	143	-37	1252	911	84	22	1308	125	52	54	-9	106	115	143	84	52
68	2	1014683.57603	1015785.82283	1020795.50456	1023818.63676	4458.42252418	165	1475	210	127	38	453	385	166	-1	nan	nan	nan	nan	nan	nan	nan	nan	-1	165	166	127	nan	nan
69	2	1028327.37722	1029512.5913	1034522.59778	1037545.20143	3106.23766601	46	929	798	29	17	507	943	75	-29	nan	nan	nan	nan	nan	nan	nan	nan	17	46	29	75	nan	nan
70	2	1040718.04744	1041854.26313	1046863.45333	1049885.91329	2655.2829818	34	1083	910	48	-14	172	863	15	19	nan	nan	nan	nan	nan	nan	nan	nan	-14	34	48	15	nan	nan
71	2	1052574.67547	1053843.78638	1058853.49743	1061877.16221	2921.62543361	150	903	914	160	-10	725	602	120	30	nan	nan	nan	nan	nan	nan	nan	nan	30	150	120	160	nan	nan
72	4	1064882.32342	1065917.33658	1070927.35405	1073949.91372	3740.80650033	31	1226	216	153	58	382	171	143	68	391	399	54	-23	1418	695	10	21	21	31	10	153	143	54
73	2	1077757.65441	1078809.40807	1083819.8588	1086841.73267	3139.58087142	135	182	590	8	-53	487	553	143	-8	nan	nan	nan	nan	nan	nan	nan	nan	-8	135	143	8	nan	nan
74	4	1090048.04943	1091467.61126	1096477.26073	1099500.53148	3290.09702987	57	1266	693	101	-44	585	561	116	-59	1015	862	66	-9	975	161	135	-78	-9	57	66	101	116	135
75	4	1102873.4928	1104075.56395	1109085.91425	1112107.94793	3056.22798941	34	610	162	12	22	750	724	26	8	1147	641	48	-14	250	194	104	-70	-14	34	48	12	26	104
76	2	1115231.10645	1116449.76674	1121459.57089	1124482.31749	4776.10261884	175	1221	539	4	-9	995	730	149	26	nan	nan	nan	nan	nan	nan	nan	nan	26	175	149	4	nan	nan
77	4	1129291.79703	1130594.61549	1135604.75429	1138626.74362	2973.6404382	44	330	805	49	-5	1221	252	83	-39	1134	826	20	24	445	908	109	-65	-5	44	49	83	20	109
78	4	1141665.9342	1142885.04277	1147895.36484	1150917.39705	2272.08903055	23	427	374	170	33	297	170	144	59	1305	940	91	-68	1436	642	24	-1	-1	23	24	170	144	91
79	4	1153272.06557	1154457.75029	1159467.62922	1162490.76801	3406.26456988	122	978	119	128	-6	173	936	23	-81	736	800	154	-32	1454	273	114	8	8	122	114	128	23	154
