trialnr	nstim	fixonset	stimonset	maintenanceonset	probeonset	RT	response	stimx0	stimy0	stimori0	stimerror0	stimx1	stimy1	stimori1	stimerror1	stimx2	stimy2	stimori2	stimerror2	stimx3	stimy3	stimori3	stimerror3	E	X	T	NT0	NT1	NT2
0	4	1607.0075407	2859.16120195	7868.99750427	10892.3299494	3056.76473035	136	263	518	99	37	777	116	39	-83	673	307	123	13	616	754	22	-66	-83	136	39	99	123	22
1	4	14032.4639028	15367.7063888	20378.4176074	23400.0907538	3206.50810168	25	432	871	16	9	1242	802	128	77	688	880	28	-3	933	494	48	-23	-3	25	28	16	128	48
2	4	26656.5105025	28160.249331	33169.1634341	36192.0175526	3222.77230807	57	593	638	84	-27	1116	247	149	88	1483	571	31	26	573	209	55	2	2	57	55	84	149	31
3	2	39498.6388766	40700.5704366	45710.7003326	48733.0863873	4826.59173737	152	298	292	123	29	1079	611	27	-55	nan	nan	nan	nan	nan	nan	nan	nan	29	152	123	27	nan	nan
4	4	53642.9454513	54945.2581699	59954.821038	62977.5868218	2571.76567784	47	257	751	110	-63	891	165	131	-84	1457	284	158	69	1466	894	78	-31	-63	47	110	131	158	78
5	4	65616.0107116	66751.6711194	71761.5862265	74783.8322653	3207.39474706	144	1279	745	160	-16	395	370	142	2	956	441	113	31	763	882	132	12	12	144	132	160	142	113
6	2	78057.9435032	79292.6956035	84302.4512684	87325.0264546	3223.26566263	44	284	185	148	76	941	511	95	-51	nan	nan	nan	nan	nan	nan	nan	nan	76	44	148	95	nan	nan
7	4	90598.1066328	91683.5053538	96693.5025645	99715.9164757	3072.73351047	53	1424	703	143	90	1155	716	60	-7	1392	448	122	-69	271	625	43	10	10	53	43	143	60	122
8	2	102855.396533	104341.755059	109351.398198	112374.610054	4625.24993027	91	317	177	150	-59	676	933	90	1	nan	nan	nan	nan	nan	nan	nan	nan	1	91	90	150	nan	nan
9	4	117066.481176	118519.268135	123529.808548	126551.747065	5177.61020665	22	976	524	116	86	464	148	25	-3	468	519	156	46	1489	554	136	66	-3	22	25	116	156	136
10	4	131795.504169	133281.508991	138291.269054	141314.506933	4125.05511753	162	496	225	91	71	463	401	168	-6	1338	461	79	83	1446	852	19	-37	-6	162	168	91	79	19
11	4	145522.982955	147041.877592	152051.674675	155074.092985	2372.41085072	49	1502	258	75	-26	1220	720	32	17	874	281	135	-86	391	730	167	62	17	49	32	75	135	167
12	4	157513.238286	158998.568685	164008.358071	167030.923361	6095.3072305	19	764	119	115	84	1041	693	0	19	1165	837	169	30	1084	242	24	-5	-5	19	24	115	0	169
13	4	173209.830731	174462.124775	179471.783675	182494.505474	3941.13722991	21	1294	861	5	16	1177	330	49	-28	364	740	68	-47	1153	516	140	61	61	21	140	5	49	68
14	2	186486.052837	187554.300707	192564.061136	195586.758012	3440.14850485	62	755	811	34	28	1463	165	80	-18	nan	nan	nan	nan	nan	nan	nan	nan	-18	62	80	34	nan	nan
15	2	199094.979549	200596.462362	205606.191636	208628.945691	3289.65557181	90	342	587	90	0	648	273	154	-64	nan	nan	nan	nan	nan	nan	nan	nan	0	90	90	154	nan	nan
16	2	212002.319426	213288.293899	218298.3153	221320.235857	10470.8658739	175	634	419	178	-3	911	161	64	-69	nan	nan	nan	nan	nan	nan	nan	nan	-3	175	178	64	nan	nan
17	2	231874.277424	233360.544684	238370.401146	241392.975965	1804.46775437	139	1070	364	44	-85	771	815	118	21	nan	nan	nan	nan	nan	nan	nan	nan	21	139	118	44	nan	nan
18	4	243263.134282	244466.159946	249475.411993	252498.259514	6362.40740897	132	797	870	24	-72	919	770	58	74	302	190	172	-40	1090	387	134	-2	-2	132	134	24	58	172
19	2	258927.240466	260196.591162	265206.578476	268228.990555	3590.06488016	141	208	205	166	-25	1012	913	136	5	nan	nan	nan	nan	nan	nan	nan	nan	5	141	136	166	nan	nan
20	4	271885.799049	273171.704247	278181.385872	281204.102907	3424.32377254	146	1186	192	83	63	287	765	169	-23	623	747	141	5	858	361	125	21	-23	146	169	83	141	125
21	2	284694.174788	285746.131327	290756.101781	293778.700058	2538.19117746	132	1209	653	137	-5	597	239	75	57	nan	nan	nan	nan	nan	nan	nan	nan	-5	132	137	75	nan	nan
22	4	296383.865767	297769.640808	302779.498369	305802.680902	3706.78245227	25	942	919	11	14	468	644	69	-44	449	831	46	-21	323	389	119	86	14	25	11	69	46	119
23	4	309576.425423	310661.688893	315671.326534	318694.050166	3306.55937977	71	1354	671	79	-8	229	822	0	71	1288	873	149	-78	622	866	164	87	-8	71	79	0	149	164
24	2	322050.810388	323386.659487	328396.228587	331418.960283	2506.27854153	107	1354	926	20	87	589	895	96	11	nan	nan	nan	nan	nan	nan	nan	nan	11	107	96	20	nan	nan
25	4	333990.720829	335159.57051	340169.206685	343191.791035	2138.11361889	152	307	251	67	85	950	550	45	-73	689	174	104	48	718	409	15	-43	-43	152	15	67	45	104
26	4	345396.145017	346698.755728	351708.633448	354731.158786	3824.10700443	41	737	411	119	-78	334	485	1	40	226	257	142	79	229	745	61	-20	-20	41	61	119	1	142
27	4	358621.996209	359991.986104	365001.073578	368024.18317	3189.21430171	22	614	493	103	-81	1064	207	166	36	1332	543	44	-22	1512	442	177	25	25	22	177	103	166	44
28	4	371280.06558	372599.386202	377609.053899	380631.710089	2721.97564676	165	505	581	136	29	608	857	172	-7	236	509	94	71	880	599	120	45	-7	165	172	136	94	120
29	2	383420.816044	384923.406888	389933.123334	392956.150456	4525.09822191	177	1381	526	176	1	1294	738	59	-62	nan	nan	nan	nan	nan	nan	nan	nan	1	177	176	59	nan	nan
30	4	397565.979575	398900.682523	403911.483909	406933.052226	6479.77777786	32	1206	601	19	13	1120	836	47	-15	258	244	30	2	422	287	83	-51	2	32	30	19	47	83
31	4	413496.078271	414732.773734	419741.39461	422764.324601	5076.90539871	152	514	723	6	-34	248	896	69	83	338	133	116	36	719	157	145	7	36	152	116	6	69	145
32	4	427924.118697	429343.570502	434354.070597	437375.907584	1853.8457281	133	205	645	7	-54	1012	186	116	17	979	348	135	-2	1210	881	61	72	-2	133	135	7	116	61
33	4	439296.359842	440549.870412	445559.417153	448581.134283	2638.79738779	45	1466	673	158	67	1046	354	63	-18	855	767	124	-79	685	227	96	-51	-51	45	96	158	63	124
34	4	451303.1004	452739.243423	457749.174657	460771.808122	3506.8056172	174	305	575	90	84	1118	359	126	48	243	869	8	-14	894	655	101	73	-14	174	8	90	126	101
35	4	464328.659538	465764.850944	470774.97974	473797.22248	3640.56004906	78	1435	726	124	-46	512	280	63	15	1137	868	137	-59	949	834	102	-24	15	78	63	124	137	102
36	4	477504.354605	478923.955589	483933.701358	486956.196273	4091.63456136	101	244	414	58	43	1155	870	70	31	1074	695	115	-14	817	608	150	-49	-14	101	115	58	70	150
37	4	491131.908201	492567.752865	497577.782697	500599.730011	2672.40524275	126	1473	825	113	13	907	106	62	64	496	368	173	-47	266	782	97	29	13	126	113	62	173	97
38	4	503338.225338	504690.974947	509700.633847	512723.343918	2170.81796793	104	266	336	49	55	1354	794	122	-18	1503	818	83	21	855	377	97	7	-18	104	122	49	83	97
39	4	514944.623333	516347.561322	521356.878979	524379.297655	3858.68030955	152	504	191	135	17	1392	221	1	-29	560	511	164	-12	334	302	96	56	17	152	135	1	164	96
40	2	528337.630087	529823.452742	534833.255323	537855.779561	3673.90216698	6	446	616	122	64	749	824	29	-23	nan	nan	nan	nan	nan	nan	nan	nan	-23	6	29	122	nan	nan
41	2	541596.497183	542982.328304	547992.673721	551014.710469	2504.93226271	72	462	228	104	-32	775	250	75	-3	nan	nan	nan	nan	nan	nan	nan	nan	-3	72	75	104	nan	nan
42	2	553587.675813	555005.964239	560015.633768	563038.648795	4909.712084	15	805	389	74	-59	497	738	176	19	nan	nan	nan	nan	nan	nan	nan	nan	19	15	176	74	nan	nan
43	4	568031.336811	569050.801591	574060.792937	577082.45912	3690.79497893	24	929	834	103	-79	400	792	39	-15	424	351	131	73	1393	680	54	-30	-30	24	54	103	39	131
44	2	580823.136423	582125.982082	587135.312934	590158.05306	2571.72462605	106	366	663	106	0	1181	590	64	42	nan	nan	nan	nan	nan	nan	nan	nan	0	106	106	64	nan	nan
45	2	592796.397412	594199.166795	599209.012627	602231.555192	2705.44460372	150	995	445	35	-65	758	855	145	5	nan	nan	nan	nan	nan	nan	nan	nan	5	150	145	35	nan	nan
46	4	605020.47678	606423.217207	611433.357366	614456.271229	2654.886391	85	1395	780	127	-42	1176	405	27	58	190	456	81	4	578	167	47	38	4	85	81	127	27	47
47	2	617177.589681	618480.046447	623490.012136	626512.277234	4893.19203698	123	1007	800	144	-21	366	521	97	26	nan	nan	nan	nan	nan	nan	nan	nan	-21	123	144	97	nan	nan
48	2	631472.642463	632891.373663	637901.185407	640923.909039	3740.7722355	24	362	290	46	-22	732	730	35	-11	nan	nan	nan	nan	nan	nan	nan	nan	-11	24	35	46	nan	nan
49	2	644731.398499	646050.61246	651060.419073	654083.107884	2889.65535189	17	682	632	155	42	245	838	173	24	nan	nan	nan	nan	nan	nan	nan	nan	24	17	173	155	nan	nan
50	2	657055.364205	658257.873422	663267.462314	666290.420528	2305.09764278	18	919	778	5	13	1186	427	39	-21	nan	nan	nan	nan	nan	nan	nan	nan	13	18	5	39	nan	nan
51	2	668628.914169	669797.390352	674806.702878	677829.262303	2037.50154402	17	871	900	99	-82	651	579	8	9	nan	nan	nan	nan	nan	nan	nan	nan	9	17	8	99	nan	nan
52	2	679933.37331	681386.139742	686396.981814	689418.7301	4091.53559722	169	1443	943	124	45	1247	636	175	-6	nan	nan	nan	nan	nan	nan	nan	nan	-6	169	175	124	nan	nan
53	2	693577.036068	694845.873617	699856.362716	702878.247352	2338.38148183	48	499	939	175	53	447	622	51	-3	nan	nan	nan	nan	nan	nan	nan	nan	-3	48	51	175	nan	nan
54	4	705333.092398	706352.337991	711361.47678	714384.208109	3941.0635566	138	515	877	83	55	518	678	37	-79	979	563	99	39	344	137	153	-15	-15	138	153	83	37	99
55	4	718408.771741	719427.790816	724438.075023	727459.639675	3156.52021562	47	1474	673	34	13	928	129	168	59	1322	816	143	84	868	280	83	-36	84	47	143	34	168	83
56	2	730682.612844	731734.809463	736744.491821	739767.175135	2955.9503288	131	1110	604	164	-33	450	797	100	31	nan	nan	nan	nan	nan	nan	nan	nan	31	131	100	164	nan	nan
57	2	742790.3595	744108.861286	749118.626847	752141.234655	3574.59898448	126	1318	160	123	3	586	708	32	-86	nan	nan	nan	nan	nan	nan	nan	nan	3	126	123	32	nan	nan
58	4	755766.008824	756917.802586	761926.967764	764949.713755	5778.31922972	150	789	183	106	44	1299	373	152	-2	1486	359	95	55	664	678	135	15	-2	150	152	106	95	135
59	2	770794.330894	772113.590672	777124.268902	780145.960742	6045.1661333	137	597	485	140	-3	1239	873	58	79	nan	nan	nan	nan	nan	nan	nan	nan	79	137	58	140	nan	nan
60	2	786274.77723	787360.663074	792370.750819	795392.434595	4408.71016373	113	1411	301	92	21	227	460	119	-6	nan	nan	nan	nan	nan	nan	nan	nan	-6	113	119	92	nan	nan
61	2	799867.888739	801020.229736	806031.95772	809052.600539	3307.3653877	142	1246	598	132	10	869	788	168	-26	nan	nan	nan	nan	nan	nan	nan	nan	10	142	132	168	nan	nan
62	2	812426.221318	813661.474837	818671.389577	821694.556349	2855.03219817	156	485	443	160	-4	1501	722	109	47	nan	nan	nan	nan	nan	nan	nan	nan	-4	156	160	109	nan	nan
63	2	824633.52883	825968.803205	830978.661866	834001.895347	4525.20415019	80	1470	286	32	48	943	609	84	-4	nan	nan	nan	nan	nan	nan	nan	nan	-4	80	84	32	nan	nan
64	4	838593.579207	840113.179054	845123.13558	848145.713698	3189.40929772	127	1229	167	93	34	1373	241	118	9	581	230	170	-43	741	883	144	-17	-17	127	144	93	118	170
65	2	851419.262673	852821.392821	857831.536279	860853.714142	3456.92255983	153	243	614	54	-81	186	282	136	17	nan	nan	nan	nan	nan	nan	nan	nan	-81	153	54	136	nan	nan
66	2	864394.035248	865596.504513	870606.259812	873628.945691	4341.77411912	164	173	827	53	-69	1213	837	159	5	nan	nan	nan	nan	nan	nan	nan	nan	5	164	159	53	nan	nan
67	4	878038.0836	879440.221812	884450.097333	887473.202161	4107.28628969	122	702	545	108	14	431	206	154	-32	1260	843	66	56	1288	171	95	27	27	122	95	108	154	66
68	4	891647.266519	892800.468504	897809.311499	900832.083514	2020.76340937	27	712	852	160	47	818	363	12	15	834	642	122	85	441	125	150	57	15	27	12	160	122	150
69	2	902886.060021	904054.996571	909064.790355	912087.254115	1954.06524522	158	1338	525	142	16	1508	146	109	49	nan	nan	nan	nan	nan	nan	nan	nan	49	158	109	142	nan	nan
70	2	914124.995006	915427.087438	920436.870959	923459.473635	2955.95839254	40	242	426	22	18	1215	150	47	-7	nan	nan	nan	nan	nan	nan	nan	nan	-7	40	47	22	nan	nan
71	4	926498.963259	927634.317611	932644.108097	935666.817434	3840.75423869	51	955	409	96	-45	529	447	149	82	1348	222	51	0	365	563	86	-35	0	51	51	96	149	86
72	4	939574.391893	940860.17027	945870.330221	948892.754029	3156.25301245	130	222	846	106	24	929	619	93	37	709	195	68	62	912	914	126	4	24	130	106	93	68	126
73	2	952115.570688	953385.489878	958395.045049	961417.152171	3891.2820291	150	1039	344	154	-4	403	298	27	-57	nan	nan	nan	nan	nan	nan	nan	nan	-4	150	154	27	nan	nan
74	2	965374.773894	966660.640972	971670.541052	974693.140796	3623.76436858	55	774	220	143	-88	840	698	82	-27	nan	nan	nan	nan	nan	nan	nan	nan	-88	55	143	82	nan	nan
75	4	978400.481479	979519.093298	984529.020867	987551.432579	2655.30313999	108	539	130	42	66	1055	780	70	38	704	791	105	3	950	498	95	13	13	108	95	42	70	105
76	2	990273.98625	991709.585337	996719.40991	999742.20465	1770.33978787	45	798	718	163	62	700	848	33	12	nan	nan	nan	nan	nan	nan	nan	nan	12	45	33	163	nan	nan
77	2	1001595.79124	1002881.56778	1007891.19736	1010914.00603	2855.48083559	11	856	632	6	5	1241	605	132	59	nan	nan	nan	nan	nan	nan	nan	nan	5	11	6	132	nan	nan
78	2	1013836.22205	1014988.42669	1019998.86228	1023020.84478	2003.92704364	143	1185	939	160	-17	1033	517	29	-66	nan	nan	nan	nan	nan	nan	nan	nan	-17	143	160	29	nan	nan
79	2	1025074.85501	1026227.21836	1031236.88056	1034259.76217	2003.72911536	129	704	852	117	12	813	443	49	80	nan	nan	nan	nan	nan	nan	nan	nan	12	129	117	49	nan	nan
