trialnr	nstim	rewtype	rewamount	reward	total	fixonset	stimonset	maintenanceonset	probeonset	t1	rewardonset	RT	nfixself	nfixother	probedstim	response	self_fixated0	other_fixated0	rewarded0	ori0	XYloc0	error0	self_fixated1	other_fixated1	rewarded1	ori1	XYloc1	error1	self_fixated2	other_fixated2	rewarded2	ori2	XYloc2	error2	self_fixated3	other_fixated3	rewarded3	ori3	XYloc3	error3	self_fixated4	other_fixated4	rewarded4	ori4	XYloc4	error4	self_fixated5	other_fixated5	rewarded5	ori5	XYloc5	error5	self_fixated6	other_fixated6	rewarded6	ori6	XYloc6	error6	self_fixated7	other_fixated7	rewarded7	ori7	XYloc7	error7	E	X	T	NT0	NT1	NT2	NT3	NT4	NT5	NT6
1	8	collaborate	contingent	5.04	3.0200405949	23717.2062347	15850.8990438	28959.8857429	32066.2099118	38329.6127309	None	6263.40281912	3	5	3	65	0	1	1	116	[1507, 523]	-51	1	0	1	87	[988, 404]	-22	0	1	1	66	[380, 893]	-1	1	0	1	22	[1267, 505]	43	0	1	1	10	[1101, 825]	55	0	1	1	130	[919, 824]	-65	0	1	1	166	[683, 795]	79	1	0	1	36	[1071, 188]	29	43	65	22	116	87	66	10	130	166	36
2	8	collaborate	contingent	40.64	23.8400811898	55797.1953998	48231.2787182	57065.2884359	60171.7859771	67202.1312704	None	7030.34529322	7	1	4	81	1	0	1	1	[226, 456]	80	1	0	1	28	[1509, 705]	53	1	0	1	38	[1302, 471]	43	1	0	1	11	[703, 848]	70	1	0	1	58	[1070, 424]	23	1	0	1	151	[1209, 735]	-70	0	1	1	102	[909, 179]	-21	1	0	1	82	[401, 149]	-1	23	81	58	1	28	38	11	151	102	82
3	8	collaborate	contingent	94.02	120.764515092	87276.1187465	75618.8044125	88544.0915582	91651.3800879	96593.7845462	None	4942.40445827	5	3	2	38	0	1	1	94	[1465, 767]	-56	1	0	1	80	[743, 205]	-42	1	0	1	32	[724, 396]	6	1	0	1	104	[343, 432]	-66	1	0	1	125	[514, 329]	-87	0	1	1	155	[1158, 624]	63	0	1	1	13	[648, 650]	25	1	0	1	46	[315, 884]	-8	6	38	32	94	80	104	125	155	13	46
4	8	collaborate	contingent	64.57	202.708137139	111523.871504	105794.900874	112791.90626	115915.186832	120206.870603	None	4291.68377176	5	3	1	55	1	0	1	86	[298, 480]	-31	1	0	1	39	[170, 132]	16	0	1	1	138	[679, 811]	-83	1	0	1	49	[380, 791]	6	1	0	1	119	[655, 346]	-64	0	1	1	107	[818, 694]	-52	1	0	1	29	[216, 298]	26	0	1	1	8	[1230, 810]	47	16	55	39	86	138	49	119	107	29	8
5	8	collaborate	contingent	26.5	259.485414047	139612.459644	129228.567439	140863.850655	143970.330602	148362.59453	None	4392.2639277	5	3	1	151	0	1	1	67	[1069, 379]	84	1	0	1	123	[324, 767]	28	1	0	1	154	[1160, 784]	-3	0	1	1	44	[1457, 650]	-73	1	0	1	17	[420, 448]	-46	1	0	1	81	[497, 818]	70	0	1	1	109	[1295, 381]	42	1	0	1	176	[190, 449]	-25	28	151	123	67	154	44	17	81	109	176
6	8	collaborate	contingent	74.9	298.0903048	170941.193051	157247.881412	172209.013383	175315.387401	179807.731161	None	4492.34375962	5	3	4	97	0	1	1	57	[544, 770]	40	1	0	1	137	[605, 172]	-40	1	0	1	98	[391, 202]	-1	1	0	1	3	[289, 886]	-86	1	0	1	110	[426, 533]	-13	1	0	1	85	[683, 464]	12	0	1	1	36	[1378, 812]	61	0	1	1	75	[785, 822]	22	-13	97	110	57	137	98	3	85	36	75
7	8	collaborate	contingent	37.55	321.99949078	202486.578854	188742.084984	203755.210334	206861.022816	213908.06427	None	7047.04145395	6	2	1	64	1	0	1	164	[518, 867]	80	1	0	1	88	[206, 161]	-24	0	1	1	154	[1270, 550]	90	1	0	1	48	[1378, 185]	16	0	1	1	104	[1086, 301]	-40	1	0	1	70	[537, 172]	-6	1	0	1	135	[1426, 626]	-71	1	0	1	17	[568, 323]	47	-24	64	88	164	154	48	104	70	135	17
8	8	collaborate	contingent	99.32	395.240193562	224248.897088	219552.510564	225514.253553	228620.828434	232645.360072	None	4024.53163807	5	3	1	115	1	0	1	67	[395, 768]	48	1	0	1	113	[188, 574]	2	0	1	1	8	[1439, 851]	-73	1	0	1	134	[693, 114]	-19	1	0	1	153	[783, 336]	-38	1	0	1	77	[340, 166]	38	0	1	1	91	[1288, 422]	24	0	1	1	54	[1157, 879]	61	2	115	113	67	8	134	153	77	91	54
9	8	collaborate	contingent	1.0	433.190913316	259164.848517	242046.972545	260432.979673	263556.366907	270653.624032	None	7097.25712476	6	2	2	44	0	1	1	20	[1488, 498]	24	1	0	1	82	[625, 824]	-38	1	0	1	132	[647, 396]	-88	1	0	1	174	[467, 252]	50	1	0	1	72	[1141, 829]	-28	0	1	1	164	[1090, 404]	60	1	0	1	47	[930, 141]	-3	1	0	1	122	[245, 884]	-78	-88	44	132	20	82	174	72	164	47	122
10	8	collaborate	contingent	8.13	467.779180971	304604.082791	283027.834143	305856.541159	308979.637362	315892.668952	None	6913.03158969	6	2	5	37	1	0	1	105	[191, 513]	-68	1	0	1	20	[223, 259]	17	1	0	1	166	[1447, 454]	51	1	0	1	62	[863, 323]	-25	0	1	1	51	[1162, 844]	-14	1	0	1	178	[563, 389]	39	0	1	1	126	[1065, 461]	-89	1	0	1	137	[1027, 276]	80	39	37	178	105	20	166	62	51	126	137
11	8	collaborate	contingent	99.83	538.015295425	330422.284468	323991.989318	331740.986104	334846.836339	340424.695554	None	5577.85921432	5	3	3	17	1	0	1	58	[275, 256]	-41	0	1	1	105	[1476, 551]	-88	1	0	1	28	[1017, 218]	-11	1	0	1	18	[600, 341]	-1	1	0	1	134	[722, 171]	63	0	1	1	176	[1421, 368]	21	0	1	1	145	[1057, 852]	52	1	0	1	91	[278, 572]	-74	-1	17	18	58	105	28	134	176	145	91
12	8	collaborate	contingent	5.04	589.770503891	365909.681435	346219.168678	367327.180386	370450.819065	377514.340789	None	7063.52172396	5	3	7	156	1	0	1	85	[474, 445]	71	1	0	1	171	[653, 611]	-15	0	1	1	3	[1051, 625]	-27	0	1	1	37	[728, 936]	-61	1	0	1	155	[819, 761]	1	1	0	1	72	[517, 926]	84	0	1	1	122	[1037, 912]	34	1	0	1	19	[949, 359]	-43	-43	156	19	85	171	3	37	155	72	122
13	8	collaborate	contingent	99.32	659.751618345	393913.970293	383543.184744	395182.139569	398288.413889	401879.039246	None	3590.62535737	5	3	5	136	0	1	1	64	[978, 634]	72	0	1	1	123	[1342, 793]	13	1	0	1	149	[795, 297]	-13	0	1	1	84	[1128, 139]	52	1	0	1	50	[608, 526]	86	1	0	1	138	[555, 724]	-2	1	0	1	94	[173, 847]	42	1	0	1	171	[960, 254]	-35	-2	136	138	64	123	149	84	50	94	171
14	8	collaborate	contingent	98.47	739.509886001	415674.723044	411133.026443	416925.097646	420031.768193	424039.25326	None	4007.48506725	5	3	3	116	1	0	1	90	[341, 494]	26	1	0	1	38	[709, 713]	78	0	1	1	10	[995, 665]	-74	1	0	1	119	[1337, 764]	-3	1	0	1	78	[621, 589]	38	0	1	1	50	[1393, 479]	66	1	0	1	63	[433, 797]	53	0	1	1	144	[1135, 532]	-28	-3	116	119	90	38	10	78	50	63	144
15	8	collaborate	contingent	1.64	788.978435284	443145.54554	430552.013538	444412.551425	447518.958065	454032.090746	None	6513.1326808	5	3	7	156	1	0	1	41	[182, 281]	-65	0	1	1	149	[1290, 442]	7	1	0	1	88	[1272, 716]	68	0	1	1	160	[1195, 863]	-4	1	0	1	138	[294, 524]	18	0	1	1	123	[835, 351]	33	1	0	1	73	[390, 747]	83	1	0	1	30	[240, 790]	-54	-54	156	30	41	149	88	160	138	123	73
16	8	collaborate	contingent	71.53	825.243682403	468861.943926	459092.086743	470113.418507	473219.646276	478780.66858	None	5561.02230309	5	3	1	18	0	1	1	88	[1245, 675]	-70	1	0	1	32	[198, 321]	-14	0	1	1	126	[1303, 130]	72	1	0	1	54	[520, 759]	-36	1	0	1	76	[1053, 467]	-58	1	0	1	140	[1035, 626]	58	0	1	1	173	[1251, 943]	25	1	0	1	7	[895, 234]	11	-14	18	32	88	126	54	76	140	173	7
17	8	collaborate	contingent	95.81	921.797231686	495363.835627	485410.211082	496632.170211	499738.617537	504447.948708	None	4709.33117125	4	4	6	60	1	0	1	99	[205, 698]	-39	1	0	1	115	[989, 383]	-55	1	0	1	30	[514, 922]	30	0	1	1	2	[1478, 813]	58	0	1	1	85	[1142, 846]	-25	0	1	1	66	[916, 771]	-6	1	0	1	55	[401, 146]	5	0	1	1	127	[1381, 213]	-67	5	60	55	99	115	30	2	85	66	127
18	8	collaborate	contingent	97.3	1000.97049934	521799.913644	509708.040225	523050.949479	526157.315067	532152.748007	None	5995.43293972	5	3	0	61	1	0	1	65	[666, 429]	-4	1	0	1	156	[325, 195]	85	1	0	1	31	[447, 355]	30	0	1	1	124	[1301, 879]	-63	0	1	1	169	[1107, 651]	72	1	0	1	141	[974, 365]	-80	1	0	1	18	[427, 832]	43	0	1	1	48	[1009, 886]	13	-4	61	65	156	31	124	169	141	18	48
19	8	collaborate	contingent	95.81	1098.11070781	543793.07185	537680.117014	545078.082436	548184.078553	552927.082814	None	4743.00426063	5	3	2	57	0	1	1	39	[1135, 936]	18	1	0	1	119	[642, 162]	-62	1	0	1	52	[938, 123]	5	1	0	1	150	[832, 733]	87	1	0	1	79	[640, 596]	-22	1	0	1	109	[1506, 230]	-52	0	1	1	2	[1240, 649]	55	0	1	1	64	[1006, 821]	-7	5	57	52	39	119	150	79	109	2	64
20	8	collaborate	contingent	3.98	1150.01514171	577125.407223	557736.28599	578393.4801	581500.175572	584906.868624	None	3406.6930525	6	2	2	68	1	0	1	172	[1471, 305]	76	1	0	1	151	[570, 688]	-83	1	0	1	23	[439, 593]	45	1	0	1	69	[1130, 190]	-1	1	0	1	86	[368, 154]	-18	0	1	1	3	[1178, 408]	65	1	0	1	126	[300, 843]	-58	0	1	1	57	[1325, 214]	11	45	68	23	172	151	69	86	3	126	57
21	8	collaborate	contingent	71.53	1186.2801823	595898.415897	592120.763557	598399.691815	601506.103953	605764.353251	None	4258.24929845	4	4	2	99	1	0	1	50	[1193, 223]	49	1	0	1	92	[793, 204]	7	1	0	1	113	[568, 473]	-14	0	1	1	137	[1511, 890]	-38	0	1	1	20	[1353, 710]	79	0	1	1	161	[1411, 271]	-62	1	0	1	82	[714, 334]	17	0	1	1	9	[1017, 861]	90	-14	99	113	50	92	137	20	161	82	9
22	8	collaborate	contingent	91.95	1279.26618643	628043.005873	613297.04402	629310.531876	632417.10529	639464.073437	None	7046.9681464	5	3	4	148	1	0	1	167	[606, 629]	-19	1	0	1	104	[1508, 204]	44	0	1	1	127	[1340, 526]	21	1	0	1	79	[435, 787]	69	1	0	1	155	[221, 378]	-7	0	1	1	12	[1448, 356]	-44	0	1	1	137	[1302, 308]	11	1	0	1	177	[288, 820]	-29	-7	148	155	167	104	127	79	12	137	177
23	8	collaborate	contingent	99.32	1374.90277166	649117.862777	644273.739183	650385.586343	653492.356955	656798.609869	None	3306.25291398	5	3	1	168	1	0	1	94	[244, 548]	74	1	0	1	170	[191, 730]	-2	0	1	1	115	[733, 772]	53	0	1	1	19	[1497, 441]	-31	0	1	1	35	[1169, 491]	-47	1	0	1	104	[375, 218]	64	1	0	1	144	[695, 272]	24	1	0	1	5	[333, 900]	-17	-2	168	170	94	115	19	35	104	144	5
24	8	collaborate	contingent	97.3	1443.87388611	671127.522879	663361.22038	672395.524281	675501.955479	681397.029651	None	5895.07417258	5	3	3	30	1	0	1	58	[840, 292]	-28	1	0	1	76	[398, 285]	-46	0	1	1	171	[1429, 655]	39	1	0	1	26	[707, 139]	4	0	1	1	132	[1471, 188]	78	1	0	1	11	[294, 439]	19	1	0	1	157	[519, 134]	53	0	1	1	108	[1409, 867]	-78	4	30	26	58	76	171	132	11	157	108
25	8	collaborate	contingent	100.0	1541.77852423	690766.281607	685806.549076	692017.688378	695140.708342	701086.181087	None	5945.47274572	5	3	2	88	1	0	1	17	[970, 189]	71	1	0	1	49	[662, 679]	39	1	0	1	88	[1166, 310]	0	0	1	1	0	[1471, 485]	88	0	1	1	31	[1058, 591]	57	0	1	1	71	[1349, 642]	17	1	0	1	160	[700, 177]	-72	1	0	1	144	[510, 139]	-56	0	88	88	17	49	0	31	71	160	144
